action_times,actions,button_pressed,correct,env,path,pr_freq,prs,pseudo_rewards,questions,responses,returns,rewards,rt,score,stars,stimulus,time_elapsed,trial,trial_id,trial_index,trial_type,view_history,worker_id,assignment_id,pid
"[11126, 12625, 13609, 14457, 15162, 16656]","['down', 'down', 'down', 'up', 'down', 'down']",,,static/json/pachinko_2.json,"['0_0', '1_1', '2_1', '3_2', '4_1', '5_2', '6_2']",3.0,"[28, 0]",static/json/pseudo_rewards_8.json,,,"{'2': 3, '6': 39, '1': -22}","[0, 2, 9, 5, 7, 7]","[11095, 978, 459, 320, 185, 980]",30.0,28.0,,408861,10.0,,0.0,graph,,A12FCLCVIM2CL3,3IQ1VMJRYTKORPF634YDRYFPNERA9M,0
"[1776, 4329, 5754, 11338, 12834, 13777]","['up', 'up', 'up', 'down', 'up', 'down']",,,static/json/pachinko_0.json,"['0_2', '1_2', '2_1', '3_1', '4_1', '5_1', '6_1']",1.0,"[38, 39, 35, 34, 35, 0]",static/json/pseudo_rewards_0.json,,,"{'2': 23, '6': 38, '1': -1}","[0, -1, -1, 1, -1, 35]","[1768, 2024, 901, 5059, 983, 429]",33.0,181.0,,425106,0.0,,1.0,graph,,A12FCLCVIM2CL3,3IQ1VMJRYTKORPF634YDRYFPNERA9M,0
"[2116, 3043, 6651, 7483, 15252, 16043]","['down', 'down', 'up', 'down', 'down', 'up']",,,static/json/pachinko_25.json,"['0_0', '1_1', '2_1', '3_1', '4_1', '5_2', '6_1']",2.0,"[20, 17, 0]",static/json/pseudo_rewards_76.json,,,"{'2': 10, '6': 26, '1': -1}","[0, 6, 5, -2, -6, 23]","[2106, 420, 3091, 312, 7258, 272]",26.0,37.0,,443627,101.0,,2.0,graph,,A12FCLCVIM2CL3,3IQ1VMJRYTKORPF634YDRYFPNERA9M,0
"[4609, 5706, 12274, 12963, 16964, 17747]","['down', 'down', 'down', 'up', 'up', 'up']",,,static/json/pachinko_33.json,"['0_1', '1_2', '2_2', '3_3', '4_2', '5_2', '6_1']",2.0,"[29, 27, 0]",static/json/pseudo_rewards_100.json,,,"{'2': 15, '6': 30, '1': -9}","[1, 0, 0, 2, 17, 10]","[4601, 586, 6051, 177, 3474, 265]",30.0,56.0,,463901,133.0,,3.0,graph,,A12FCLCVIM2CL3,3IQ1VMJRYTKORPF634YDRYFPNERA9M,0
"[1910, 2533, 5556, 6085, 7502, 8502]","['down', 'down', 'down', 'down', 'up', 'up']",,,static/json/pachinko_9.json,"['0_1', '1_2', '2_2', '3_3', '4_3', '5_3', '6_2']",2.0,"[28, 18, 0]",static/json/pseudo_rewards_28.json,,,"{'2': 3, '6': 27, '1': -15}","[-1, 0, 0, 10, 17, 1]","[1899, 111, 2504, 11, 888, 480]",27.0,46.0,,476059,37.0,,4.0,graph,,A12FCLCVIM2CL3,3IQ1VMJRYTKORPF634YDRYFPNERA9M,0
"[2811, 6081, 7401, 8697, 9833, 10689]","['down', 'down', 'down', 'down', 'down', 'down']",,,static/json/pachinko_24.json,"['0_0', '1_1', '2_1', '3_2', '4_2', '5_3', '6_3']",1.0,"[27, 31, 41, 39, 26, 0]",static/json/pseudo_rewards_72.json,,,"{'2': 16, '6': 29, '1': -3}","[2, -4, -10, 2, 13, 26]","[2802, 2716, 789, 751, 608, 335]",29.0,164.0,,489484,96.0,,5.0,graph,,A12FCLCVIM2CL3,3IQ1VMJRYTKORPF634YDRYFPNERA9M,0
"[2648, 3278, 6766, 7439, 9031, 9599]","['up', 'down', 'down', 'down', 'down', 'up']",,,static/json/pachinko_17.json,"['0_1', '1_1', '2_1', '3_2', '4_2', '5_3', '6_2']",2.0,"[27, 22, 0]",static/json/pseudo_rewards_52.json,,,"{'2': 9, '6': 28, '1': -8}","[0, 0, 3, 2, 18, 4]","[2627, 115, 2955, 162, 1078, 55]",27.0,49.0,,501657,69.0,,6.0,graph,,A12FCLCVIM2CL3,3IQ1VMJRYTKORPF634YDRYFPNERA9M,0
"[5351, 5981, 6908, 12397, 13701, 14485]","['down', 'down', 'down', 'down', 'down', 'down']",,,static/json/pachinko_14.json,"['0_0', '1_1', '2_1', '3_2', '4_2', '5_3', '6_3']",3.0,"[18, 0]",static/json/pseudo_rewards_44.json,,,"{'2': 10, '6': 21, '1': -2}","[0, -4, 6, 2, -2, 11]","[5342, 105, 414, 4962, 754, 277]",13.0,18.0,,518931,58.0,,7.0,graph,,A12FCLCVIM2CL3,3IQ1VMJRYTKORPF634YDRYFPNERA9M,0
"[1289, 2623, 3823, 6151, 7751, 8791]","['down', 'down', 'up', 'up', 'up', 'up']",,,static/json/pachinko_32.json,"['0_1', '1_2', '2_2', '3_2', '4_1', '5_1', '6_0']",1.0,"[34, 33, 28, 31, 8, 0]",static/json/pseudo_rewards_96.json,,,"{'2': 1, '6': 34, '1': -12}","[0, 1, 5, -3, 23, 8]","[1279, 799, 677, 1802, 1089, 522]",34.0,134.0,,530596,128.0,,8.0,graph,,A12FCLCVIM2CL3,3IQ1VMJRYTKORPF634YDRYFPNERA9M,0
"[5724, 6541, 7203, 10292, 10877, 11453]","['down', 'down', 'down', 'up', 'down', 'down']",,,static/json/pachinko_22.json,"['0_0', '1_1', '2_1', '3_2', '4_1', '5_2', '6_2']",3.0,"[34, 0]",static/json/pseudo_rewards_68.json,,,"{'2': 10, '6': 30, '1': -10}","[0, -1, -3, 4, 13, 0]","[5711, 302, 148, 2564, 71, 63]",13.0,34.0,,546812,90.0,,9.0,graph,,A12FCLCVIM2CL3,3IQ1VMJRYTKORPF634YDRYFPNERA9M,0
"[3065, 4250, 5033, 5881, 6489, 7120]","['up', 'down', 'up', 'down', 'up', 'up']",,,static/json/pachinko_29.json,"['0_3', '1_3', '2_3', '3_3', '4_3', '5_3', '6_2']",2.0,"[35, 37, 0]",static/json/pseudo_rewards_88.json,,,"{'2': 7, '6': 27, '1': -37}","[-2, -6, 3, -5, 12, 25]","[3055, 674, 264, 339, 83, 111]",27.0,72.0,,556147,117.0,,10.0,graph,,A12FCLCVIM2CL3,3IQ1VMJRYTKORPF634YDRYFPNERA9M,0
"[7922, 8496, 9067, 13928, 14520, 15055]","['up', 'down', 'up', 'up', 'down', 'down']",,,static/json/pachinko_34.json,"['0_1', '1_1', '2_1', '3_1', '4_0', '5_1', '6_1']",3.0,"[21, 0]",static/json/pseudo_rewards_104.json,,,"{'2': 11, '6': 34, '1': -5}","[-2, 8, -3, 7, 0, 0]","[7911, 57, 42, 4309, 73, 23]",10.0,21.0,,573689,138.0,,11.0,graph,,A12FCLCVIM2CL3,3IQ1VMJRYTKORPF634YDRYFPNERA9M,0
"[17411, 18450, 19282, 19944, 20658, 21738]","['up', 'up', 'up', 'up', 'down', 'down']",,,static/json/pachinko_15.json,"['0_2', '1_2', '2_1', '3_1', '4_0', '5_1', '6_1']",0.0,[],,,,"{'2': 8, '6': 35, '1': -4}","[1, -2, 0, 8, 4, 19]","[17410, 520, 320, 148, 194, 576]",30.0,0.0,,667492,63.0,,12.0,graph,,A12FCLCVIM2CL3,3IQ1VMJRYTKORPF634YDRYFPNERA9M,0
"[3108, 3659, 5396, 5980, 6612, 7514]","['up', 'up', 'up', 'up', 'down', 'down']",,,static/json/pachinko_13.json,"['0_2', '1_2', '2_1', '3_1', '4_0', '5_1', '6_1']",2.0,"[26, 43, 0]",static/json/pseudo_rewards_40.json,,,"{'2': 7, '6': 21, '1': -4}","[0, -5, -9, -8, 28, 0]","[3097, 32, 1209, 68, 113, 387]",6.0,69.0,,677275,53.0,,13.0,graph,,A12FCLCVIM2CL3,3IQ1VMJRYTKORPF634YDRYFPNERA9M,0
"[1990, 3159, 3847, 6023, 6991, 7685]","['down', 'down', 'down', 'down', 'up', 'up']",,,static/json/pachinko_26.json,"['0_1', '1_2', '2_2', '3_3', '4_3', '5_3', '6_2']",3.0,"[28, 0]",static/json/pseudo_rewards_80.json,,,"{'2': 4, '6': 28, '1': -8}","[0, 0, 0, -3, 24, 7]","[1982, 655, 175, 1631, 454, 178]",28.0,28.0,,687075,106.0,,14.0,graph,,A12FCLCVIM2CL3,3IQ1VMJRYTKORPF634YDRYFPNERA9M,0
"[8546, 10279, 10889, 11624, 12209, 12960]","['down', 'down', 'up', 'down', 'up', 'down']",,,static/json/pachinko_3.json,"['0_0', '1_1', '2_1', '3_1', '4_1', '5_1', '6_1']",0.0,[],,,,"{'2': 11, '6': 23, '1': -5}","[0, 1, 2, -7, 7, 17]","[8546, 1216, 92, 226, 79, 247]",20.0,0.0,,702235,15.0,,15.0,graph,,A12FCLCVIM2CL3,3IQ1VMJRYTKORPF634YDRYFPNERA9M,0
"[2644, 3300, 3909, 5125, 6133, 6781]","['down', 'down', 'down', 'down', 'down', 'down']",,,static/json/pachinko_6.json,"['0_0', '1_1', '2_1', '3_2', '4_2', '5_3', '6_3']",3.0,"[32, 0]",static/json/pseudo_rewards_20.json,,,"{'2': 12, '6': 35, '1': -1}","[1, 1, 1, -9, 20, 21]","[2634, 139, 101, 687, 489, 138]",35.0,32.0,,712721,26.0,,16.0,graph,,A12FCLCVIM2CL3,3IQ1VMJRYTKORPF634YDRYFPNERA9M,0
"[1302, 2518, 3678, 4782, 5646, 6468]","['down', 'down', 'down', 'down', 'up', 'up']",,,static/json/pachinko_12.json,"['0_1', '1_2', '2_2', '3_3', '4_3', '5_3', '6_2']",1.0,"[34, 36, 37, 33, 20, 0]",static/json/pseudo_rewards_36.json,,,"{'2': 18, '6': 34, '1': -3}","[0, -2, -1, 4, 13, 20]","[1295, 691, 644, 582, 317, 299]",34.0,160.0,,721498,48.0,,17.0,graph,,A12FCLCVIM2CL3,3IQ1VMJRYTKORPF634YDRYFPNERA9M,0
"[9764, 10490, 12138, 12811, 13395, 14027]","['up', 'down', 'down', 'down', 'up', 'down']",,,static/json/pachinko_19.json,"['0_0', '1_0', '2_0', '3_1', '4_1', '5_1', '6_1']",0.0,[],,,,"{'2': 23, '6': 36, '1': -2}","[-5, 3, 3, 3, 4, 28]","[9763, 209, 1140, 162, 79, 112]",36.0,0.0,,737844,79.0,,18.0,graph,,A12FCLCVIM2CL3,3IQ1VMJRYTKORPF634YDRYFPNERA9M,0
"[7965, 8724, 9635, 10146, 10754, 11290]","['down', 'down', 'down', 'down', 'down', 'up']",,,static/json/pachinko_27.json,"['0_0', '1_1', '2_1', '3_2', '4_2', '5_3', '6_2']",0.0,[],,,,"{'2': 13, '6': 33, '1': -4}","[0, 0, 1, 12, 16, 4]","[7964, 226, 405, 1, 76, 29]",33.0,0.0,,751538,111.0,,19.0,graph,,A12FCLCVIM2CL3,3IQ1VMJRYTKORPF634YDRYFPNERA9M,0
"[5694, 6262, 6877, 7676, 8372, 8996]","['up', 'up', 'up', 'up', 'down', 'down']",,,static/json/pachinko_38.json,"['0_2', '1_2', '2_1', '3_1', '4_0', '5_1', '6_1']",3.0,"[40, 0]",static/json/pseudo_rewards_116.json,,,"{'2': 16, '6': 31, '1': -15}","[1, -3, -7, 15, 7, 18]","[5683, 59, 81, 255, 184, 109]",31.0,40.0,,762699,154.0,,20.0,graph,,A12FCLCVIM2CL3,3IQ1VMJRYTKORPF634YDRYFPNERA9M,0
"[2379, 2930, 3465, 6235, 6802, 7338]","['down', 'down', 'down', 'down', 'down', 'down']",,,static/json/pachinko_18.json,"['0_0', '1_1', '2_1', '3_2', '4_2', '5_3', '6_3']",3.0,"[36, 0]",static/json/pseudo_rewards_56.json,,,"{'2': 16, '6': 37, '1': -6}","[0, 0, 1, 14, 1, 21]","[2370, 36, 22, 2247, 58, 29]",37.0,36.0,,771738,74.0,,21.0,graph,,A12FCLCVIM2CL3,3IQ1VMJRYTKORPF634YDRYFPNERA9M,0
"[1275, 3145, 4537, 5707, 7225, 8081]","['down', 'down', 'up', 'down', 'down', 'down']",,,static/json/pachinko_28.json,"['0_1', '1_2', '2_2', '3_2', '4_2', '5_3', '6_3']",1.0,"[33, 26, 25, 23, 22, 0]",static/json/pseudo_rewards_84.json,,,"{'2': 9, '6': 33, '1': -3}","[0, -7, 1, 2, 1, 4]","[1267, 1345, 871, 650, 997, 345]",1.0,129.0,,784858,112.0,,22.0,graph,,A12FCLCVIM2CL3,3IQ1VMJRYTKORPF634YDRYFPNERA9M,0
"[5551, 6100, 6654, 7170, 7701, 8789]","['down', 'up', 'down', 'up', 'up', 'up']",,,static/json/pachinko_39.json,"['0_2', '1_3', '2_2', '3_3', '4_2', '5_2', '6_1']",0.0,[],,,,"{'2': 17, '6': 36, '1': -5}","[-2, 3, 9, -12, 10, 27]","[5550, 45, 27, 12, 12, 566]",35.0,0.0,,795297,159.0,,23.0,graph,,A12FCLCVIM2CL3,3IQ1VMJRYTKORPF634YDRYFPNERA9M,0
"[9563, 10132, 10899, 11451, 12108, 12698]","['down', 'down', 'down', 'up', 'up', 'up']",,,static/json/pachinko_30.json,"['0_0', '1_1', '2_1', '3_2', '4_1', '5_1', '6_0']",3.0,"[10, 0]",static/json/pseudo_rewards_92.json,,,"{'2': 1, '6': 22, '1': -17}","[0, 0, -3, -9, 10, 9]","[9555, 59, 257, 39, 149, 74]",7.0,10.0,,810233,122.0,,24.0,graph,,A12FCLCVIM2CL3,3IQ1VMJRYTKORPF634YDRYFPNERA9M,0
"[1999, 2767, 4871, 5517, 7959, 8622]","['up', 'up', 'up', 'up', 'down', 'down']",,,static/json/pachinko_1.json,"['0_3', '1_3', '2_2', '3_2', '4_1', '5_2', '6_2']",2.0,"[21, 19, 0]",static/json/pseudo_rewards_4.json,,,"{'2': 10, '6': 24, '1': -12}","[4, -1, 4, -2, 9, 10]","[1991, 258, 1593, 127, 1913, 128]",24.0,40.0,,821715,5.0,,25.0,graph,,A12FCLCVIM2CL3,3IQ1VMJRYTKORPF634YDRYFPNERA9M,0
"[7462, 8013, 8587, 9123, 9692, 10227]","['down', 'down', 'down', 'up', 'up', 'down']",,,static/json/pachinko_35.json,"['0_0', '1_1', '2_1', '3_2', '4_1', '5_1', '6_1']",0.0,[],,,,"{'2': 14, '6': 29, '1': -8}","[0, 6, 7, 4, 9, 3]","[7460, 28, 55, 24, 61, 29]",29.0,0.0,,833852,143.0,,26.0,graph,,A12FCLCVIM2CL3,3IQ1VMJRYTKORPF634YDRYFPNERA9M,0
"[4652, 5324, 5877, 6444, 7020, 7614]","['up', 'down', 'up', 'up', 'down', 'down']",,,static/json/pachinko_7.json,"['0_3', '1_3', '2_3', '3_3', '4_2', '5_3', '6_3']",0.0,[],,,,"{'2': 18, '6': 31, '1': -7}","[0, 0, 3, 4, 3, 21]","[4652, 153, 39, 57, 66, 75]",31.0,0.0,,844091,31.0,,27.0,graph,,A12FCLCVIM2CL3,3IQ1VMJRYTKORPF634YDRYFPNERA9M,0
"[2270, 2785, 4568, 5224, 6208, 6855]","['down', 'down', 'up', 'down', 'up', 'down']",,,static/json/pachinko_5.json,"['0_0', '1_1', '2_1', '3_1', '4_1', '5_1', '6_1']",2.0,"[29, 23, 0]",static/json/pseudo_rewards_16.json,,,"{'2': 11, '6': 31, '1': -29}","[0, 2, 2, 4, 1, 22]","[2263, 0, 1237, 139, 469, 134]",31.0,52.0,,853219,21.0,,28.0,graph,,A12FCLCVIM2CL3,3IQ1VMJRYTKORPF634YDRYFPNERA9M,0
"[1117, 2261, 3876, 5150, 5860, 6566]","['down', 'down', 'down', 'down', 'up', 'up']",,,static/json/pachinko_4.json,"['0_1', '1_2', '2_2', '3_3', '4_3', '5_3', '6_2']",1.0,"[34, 34, 36, 28, 18, 0]",static/json/pseudo_rewards_12.json,,,"{'2': 15, '6': 36, '1': -8}","[2, 0, -2, 8, 10, 18]","[1108, 621, 1082, 734, 189, 181]",36.0,150.0,,862241,16.0,,29.0,graph,,A12FCLCVIM2CL3,3IQ1VMJRYTKORPF634YDRYFPNERA9M,0
"[1509, 2436, 7596, 8189, 9716, 10347]","['down', 'up', 'down', 'up', 'down', 'up']",,,static/json/pachinko_21.json,"['0_0', '1_1', '2_0', '3_1', '4_0', '5_1', '6_0']",2.0,"[37, 41, 0]",static/json/pseudo_rewards_64.json,,,"{'2': 14, '6': 36, '1': -16}","[1, -2, 2, -19, 6, 35]","[1501, 416, 4639, 84, 977, 112]",23.0,78.0,,876379,85.0,,30.0,graph,,A12FCLCVIM2CL3,3IQ1VMJRYTKORPF634YDRYFPNERA9M,0
"[7121, 22086, 22678, 23206, 24072, 24688]","['down', 'down', 'down', 'up', 'down', 'up']",,,static/json/pachinko_11.json,"['0_1', '1_2', '2_2', '3_3', '4_2', '5_3', '6_2']",0.0,[],,,,"{'2': 7, '6': 30, '1': -21}","[1, -1, 9, -9, -4, 25]","[7119, 14442, 85, 14, 345, 111]",21.0,0.0,,903180,47.0,,31.0,graph,,A12FCLCVIM2CL3,3IQ1VMJRYTKORPF634YDRYFPNERA9M,0
"[1341, 2558, 3724, 4918, 5966, 7316]","['down', 'down', 'down', 'up', 'down', 'up']",,,static/json/pachinko_20.json,"['0_0', '1_1', '2_1', '3_2', '4_1', '5_2', '6_1']",1.0,"[36, 37, 32, 20, 13, 0]",static/json/pseudo_rewards_60.json,,,"{'2': 13, '6': 36, '1': -4}","[0, -1, 5, 12, 7, 13]","[1332, 704, 647, 675, 524, 827]",36.0,138.0,,912627,80.0,,32.0,graph,,A12FCLCVIM2CL3,3IQ1VMJRYTKORPF634YDRYFPNERA9M,0
"[4143, 7182, 10598, 17950, 18542, 19190]","['down', 'down', 'up', 'down', 'up', 'down']",,,static/json/pachinko_31.json,"['0_1', '1_2', '2_2', '3_2', '4_2', '5_2', '6_2']",0.0,[],,,,"{'2': 9, '6': 23, '1': -3}","[1, 0, 6, 14, -5, 2]","[4142, 2522, 2905, 6840, 84, 131]",18.0,0.0,,933891,127.0,,33.0,graph,,A12FCLCVIM2CL3,3IQ1VMJRYTKORPF634YDRYFPNERA9M,0
"[1009, 2088, 3272, 4472, 5631, 6456]","['down', 'down', 'down', 'down', 'up', 'down']",,,static/json/pachinko_16.json,"['0_0', '1_1', '2_1', '3_2', '4_2', '5_2', '6_2']",1.0,"[39, 37, 31, 33, 10, 0]",static/json/pseudo_rewards_48.json,,,"{'2': 23, '6': 37, '1': -1}","[-2, 2, 6, -2, 23, 10]","[1000, 567, 666, 684, 640, 295]",37.0,150.0,,942620,64.0,,34.0,graph,,A12FCLCVIM2CL3,3IQ1VMJRYTKORPF634YDRYFPNERA9M,0
"[1435, 2514, 3755, 4971, 6252, 7116]","['up', 'down', 'up', 'down', 'down', 'down']",,,static/json/pachinko_36.json,"['0_0', '1_0', '2_0', '3_0', '4_0', '5_1', '6_1']",1.0,"[30, 34, 32, 16, 16, 0]",static/json/pseudo_rewards_108.json,,,"{'2': 12, '6': 27, '1': -11}","[-3, -4, 2, 16, 0, 16]","[1409, 537, 720, 688, 751, 340]",27.0,128.0,,951795,144.0,,35.0,graph,,A12FCLCVIM2CL3,3IQ1VMJRYTKORPF634YDRYFPNERA9M,0
"[5770, 6497, 7249, 12451, 13139, 13786]","['down', 'up', 'down', 'up', 'down', 'down']",,,static/json/pachinko_10.json,"['0_1', '1_2', '2_1', '3_2', '4_1', '5_2', '6_2']",3.0,"[36, 0]",static/json/pseudo_rewards_32.json,,,"{'2': 27, '6': 39, '1': -15}","[0, 0, -5, 0, 28, 8]","[5763, 185, 213, 4675, 170, 133]",31.0,36.0,,967578,42.0,,36.0,graph,,A12FCLCVIM2CL3,3IQ1VMJRYTKORPF634YDRYFPNERA9M,0
"[6375, 7085, 7677, 8264, 9005, 9629]","['down', 'down', 'up', 'down', 'up', 'up']",,,static/json/pachinko_23.json,"['0_0', '1_1', '2_1', '3_1', '4_1', '5_1', '6_0']",0.0,[],,,,"{'2': 25, '6': 36, '1': -9}","[-3, -1, 6, 6, 6, 22]","[6374, 188, 66, 69, 232, 89]",36.0,0.0,,979387,95.0,,37.0,graph,,A12FCLCVIM2CL3,3IQ1VMJRYTKORPF634YDRYFPNERA9M,0
"[1101, 2341, 3541, 4734, 5876, 6541]","['up', 'up', 'up', 'down', 'down', 'down']",,,static/json/pachinko_8.json,"['0_2', '1_2', '2_1', '3_1', '4_1', '5_2', '6_2']",1.0,"[27, 26, 25, 29, 9, 0]",static/json/pseudo_rewards_24.json,,,"{'2': 8, '6': 26, '1': -20}","[-1, 1, 1, -4, 20, 9]","[1079, 717, 674, 649, 617, 141]",26.0,116.0,,988736,32.0,,38.0,graph,,A12FCLCVIM2CL3,3IQ1VMJRYTKORPF634YDRYFPNERA9M,0
"[1727, 2277, 4574, 5125, 6543, 7093]","['up', 'up', 'up', 'up', 'down', 'up']",,,static/json/pachinko_37.json,"['0_2', '1_2', '2_1', '3_1', '4_0', '5_1', '6_0']",2.0,"[21, 12, 0]",static/json/pseudo_rewards_112.json,,,"{'2': 10, '6': 21, '1': -14}","[0, 0, 0, 2, 0, 12]","[1709, 31, 1772, 45, 890, 29]",14.0,33.0,,997865,149.0,,39.0,graph,,A12FCLCVIM2CL3,3IQ1VMJRYTKORPF634YDRYFPNERA9M,0
"[8959, 11828, 13074, 15242, 16662, 19072]","['down', 'down', 'down', 'up', 'up', 'up']",,,static/json/pachinko_33.json,"['0_1', '1_2', '2_2', '3_3', '4_2', '5_2', '6_1']",1.0,"[29, 29, 29, 27, 10, 0]",static/json/pseudo_rewards_99.json,,,"{'2': 15, '6': 30, '1': -9}","[1, 0, 0, 2, 17, 10]","[8946, 2351, 729, 1650, 901, 1898]",30.0,124.0,,84628,132.0,,0.0,graph,,A12R2U6TBB3OOG,30LSNF239UVSXND5UJBBY9VUUFX2IZ,1
"[14492, 15044, 15909, 17112, 17641, 18310]","['down', 'up', 'down', 'down', 'down', 'up']",,,static/json/pachinko_28.json,"['0_1', '1_2', '2_1', '3_2', '4_2', '5_3', '6_2']",0.0,[],,,,"{'2': 9, '6': 33, '1': -3}","[0, 8, 0, 2, 1, 22]","[14491, 40, 356, 693, 21, 156]",33.0,0.0,,105003,115.0,,1.0,graph,,A12R2U6TBB3OOG,30LSNF239UVSXND5UJBBY9VUUFX2IZ,1
"[68000, 68524, 70518, 71652, 72667, 73310]","['down', 'down', 'up', 'up', 'down', 'down']",,,static/json/pachinko_10.json,"['0_1', '1_2', '2_2', '3_2', '4_1', '5_2', '6_2']",2.0,"[40, 36, 0]",static/json/pseudo_rewards_31.json,,,"{'2': 27, '6': 39, '1': -15}","[0, -1, 4, 0, 28, 8]","[67993, 12, 1469, 626, 504, 129]",39.0,76.0,,181735,41.0,,2.0,graph,,A12R2U6TBB3OOG,30LSNF239UVSXND5UJBBY9VUUFX2IZ,1
"[41150, 42277, 47726, 48253, 48879, 49700]","['up', 'down', 'down', 'down', 'down', 'down']",,,static/json/pachinko_24.json,"['0_0', '1_0', '2_0', '3_1', '4_1', '5_2', '6_2']",0.0,[],,,,"{'2': 16, '6': 29, '1': -3}","[2, 5, -2, -2, 12, 1]","[41150, 622, 4936, 13, 112, 312]",16.0,0.0,,233745,99.0,,3.0,graph,,A12R2U6TBB3OOG,30LSNF239UVSXND5UJBBY9VUUFX2IZ,1
"[5915, 6439, 8325, 9557, 14101, 14961]","['up', 'down', 'down', 'down', 'up', 'up']",,,static/json/pachinko_30.json,"['0_0', '1_0', '2_0', '3_1', '4_1', '5_1', '6_0']",2.0,"[23, 19, 0]",static/json/pseudo_rewards_91.json,,,"{'2': 1, '6': 22, '1': -17}","[-1, 0, 7, -3, 10, 9]","[5910, 3, 1353, 722, 4029, 345]",22.0,42.0,,250634,121.0,,4.0,graph,,A12R2U6TBB3OOG,30LSNF239UVSXND5UJBBY9VUUFX2IZ,1
"[1973, 3368, 5328, 7584, 8876, 9588]","['down', 'down', 'up', 'down', 'up', 'down']",,,static/json/pachinko_5.json,"['0_0', '1_1', '2_1', '3_1', '4_1', '5_1', '6_1']",1.0,"[31, 29, 27, 23, 22, 0]",static/json/pseudo_rewards_15.json,,,"{'2': 11, '6': 31, '1': -29}","[0, 2, 2, 4, 1, 22]","[1968, 887, 1447, 1737, 779, 191]",31.0,132.0,,264496,20.0,,5.0,graph,,A12R2U6TBB3OOG,30LSNF239UVSXND5UJBBY9VUUFX2IZ,1
"[8747, 15091, 15973, 19629, 20159, 21193]","['down', 'up', 'up', 'down', 'up', 'up']",,,static/json/pachinko_39.json,"['0_2', '1_3', '2_2', '3_2', '4_2', '5_2', '6_1']",3.0,"[35, 0]",static/json/pseudo_rewards_119.json,,,"{'2': 17, '6': 36, '1': -5}","[-2, 3, 0, -2, 10, 27]","[8742, 5835, 361, 3137, 23, 524]",36.0,35.0,,287938,158.0,,6.0,graph,,A12R2U6TBB3OOG,30LSNF239UVSXND5UJBBY9VUUFX2IZ,1
"[1832, 6225, 7977, 8873, 11570, 12515]","['down', 'up', 'up', 'down', 'down', 'up']",,,static/json/pachinko_21.json,"['0_0', '1_1', '2_0', '3_0', '4_0', '5_1', '6_0']",1.0,"[35, 37, 41, 41, 35, 0]",static/json/pseudo_rewards_63.json,,,"{'2': 14, '6': 36, '1': -16}","[1, -2, -4, 0, 6, 35]","[1826, 3874, 1232, 378, 2174, 422]",36.0,189.0,,302552,84.0,,7.0,graph,,A12R2U6TBB3OOG,30LSNF239UVSXND5UJBBY9VUUFX2IZ,1
"[2981, 4214, 5327, 6778, 8672, 10281]","['down', 'down', 'down', 'down', 'up', 'down']",,,static/json/pachinko_9.json,"['0_1', '1_2', '2_2', '3_3', '4_3', '5_3', '6_3']",1.0,"[28, 28, 28, 18, 1, 0]",static/json/pseudo_rewards_27.json,,,"{'2': 3, '6': 27, '1': -15}","[-1, 0, 0, 10, 17, 1]","[2976, 720, 605, 935, 1380, 1091]",27.0,103.0,,315277,36.0,,8.0,graph,,A12R2U6TBB3OOG,30LSNF239UVSXND5UJBBY9VUUFX2IZ,1
"[4706, 5310, 8259, 9210, 11145, 12174]","['down', 'down', 'down', 'down', 'down', 'down']",,,static/json/pachinko_6.json,"['0_0', '1_1', '2_1', '3_2', '4_2', '5_3', '6_3']",2.0,"[33, 41, 0]",static/json/pseudo_rewards_19.json,,,"{'2': 12, '6': 35, '1': -1}","[1, 1, 1, -9, 20, 21]","[4700, 94, 2437, 442, 1421, 509]",35.0,74.0,,332805,25.0,,9.0,graph,,A12R2U6TBB3OOG,30LSNF239UVSXND5UJBBY9VUUFX2IZ,1
"[5917, 9532, 10873, 12070, 12817, 13629]","['down', 'up', 'down', 'down', 'down', 'up']",,,static/json/pachinko_17.json,"['0_1', '1_2', '2_1', '3_2', '4_2', '5_3', '6_2']",1.0,"[29, 27, 24, 22, 4, 0]",static/json/pseudo_rewards_51.json,,,"{'2': 9, '6': 28, '1': -8}","[-1, 2, 3, 2, 18, 4]","[5912, 3090, 819, 686, 230, 294]",28.0,106.0,,348437,68.0,,10.0,graph,,A12R2U6TBB3OOG,30LSNF239UVSXND5UJBBY9VUUFX2IZ,1
"[2210, 10970, 13439, 18810, 19397, 20644]","['down', 'down', 'down', 'up', 'down', 'up']",,,static/json/pachinko_20.json,"['0_0', '1_1', '2_1', '3_2', '4_1', '5_2', '6_1']",0.0,[],,,,"{'2': 13, '6': 36, '1': -4}","[0, -1, 5, 12, 7, 13]","[2210, 8253, 1958, 4867, 69, 733]",36.0,0.0,,371090,83.0,,11.0,graph,,A12R2U6TBB3OOG,30LSNF239UVSXND5UJBBY9VUUFX2IZ,1
"[3943, 4673, 6380, 6910, 8539, 9103]","['down', 'down', 'down', 'down', 'down', 'down']",,,static/json/pachinko_18.json,"['0_0', '1_1', '2_1', '3_2', '4_2', '5_3', '6_3']",2.0,"[37, 22, 0]",static/json/pseudo_rewards_55.json,,,"{'2': 16, '6': 37, '1': -6}","[0, 0, 1, 14, 1, 21]","[3937, 214, 1181, 15, 1109, 45]",37.0,59.0,,382247,73.0,,12.0,graph,,A12R2U6TBB3OOG,30LSNF239UVSXND5UJBBY9VUUFX2IZ,1
"[8160, 8958, 13268, 14169, 14925, 15509]","['down', 'up', 'down', 'up', 'down', 'up']",,,static/json/pachinko_14.json,"['0_0', '1_1', '2_0', '3_1', '4_0', '5_1', '6_0']",2.0,"[18, 11, 0]",static/json/pseudo_rewards_43.json,,,"{'2': 10, '6': 21, '1': -2}","[0, 3, 6, 1, 7, 4]","[8154, 289, 3792, 381, 234, 76]",21.0,29.0,,399859,57.0,,13.0,graph,,A12R2U6TBB3OOG,30LSNF239UVSXND5UJBBY9VUUFX2IZ,1
"[2707, 8403, 9329, 13396, 14158, 14752]","['up', 'down', 'up', 'down', 'up', 'up']",,,static/json/pachinko_29.json,"['0_3', '1_3', '2_3', '3_3', '4_3', '5_3', '6_2']",1.0,"[29, 35, 32, 37, 25, 0]",static/json/pseudo_rewards_87.json,,,"{'2': 7, '6': 27, '1': -37}","[-2, -6, 3, -5, 12, 25]","[2701, 5185, 409, 3548, 241, 67]",27.0,158.0,,417326,116.0,,14.0,graph,,A12R2U6TBB3OOG,30LSNF239UVSXND5UJBBY9VUUFX2IZ,1
"[2396, 5009, 5795, 10146, 14078, 14610]","['up', 'down', 'up', 'up', 'down', 'down']",,,static/json/pachinko_7.json,"['0_3', '1_3', '2_3', '3_3', '4_2', '5_3', '6_3']",3.0,"[28, 0]",static/json/pseudo_rewards_23.json,,,"{'2': 18, '6': 31, '1': -7}","[0, 0, 3, 4, 3, 21]","[2390, 2095, 270, 3831, 3420, 19]",31.0,28.0,,434051,30.0,,15.0,graph,,A12R2U6TBB3OOG,30LSNF239UVSXND5UJBBY9VUUFX2IZ,1
"[12953, 15522, 16071, 19782, 22376, 22975]","['down', 'down', 'down', 'down', 'up', 'up']",,,static/json/pachinko_11.json,"['0_1', '1_2', '2_2', '3_3', '4_3', '5_3', '6_2']",3.0,"[21, 0]",static/json/pseudo_rewards_35.json,,,"{'2': 7, '6': 30, '1': -21}","[1, -1, 9, -6, 2, 25]","[12948, 2060, 26, 3202, 2087, 85]",30.0,21.0,,459622,46.0,,16.0,graph,,A12R2U6TBB3OOG,30LSNF239UVSXND5UJBBY9VUUFX2IZ,1
"[5715, 10495, 11029, 11700, 12915, 13459]","['down', 'up', 'up', 'down', 'down', 'down']",,,static/json/pachinko_36.json,"['0_0', '1_1', '2_0', '3_0', '4_0', '5_1', '6_1']",0.0,[],,,,"{'2': 12, '6': 27, '1': -11}","[-2, -5, 2, 16, 0, 16]","[5714, 4262, 31, 149, 700, 28]",27.0,0.0,,475543,147.0,,17.0,graph,,A12R2U6TBB3OOG,30LSNF239UVSXND5UJBBY9VUUFX2IZ,1
"[9668, 10329, 12676, 13838, 16218, 17219]","['down', 'down', 'up', 'down', 'up', 'up']",,,static/json/pachinko_23.json,"['0_0', '1_1', '2_1', '3_1', '4_1', '5_1', '6_0']",3.0,"[34, 0]",static/json/pseudo_rewards_71.json,,,"{'2': 25, '6': 36, '1': -9}","[-3, -1, 6, 6, 6, 22]","[9663, 147, 1826, 652, 1866, 487]",36.0,34.0,,495582,94.0,,18.0,graph,,A12R2U6TBB3OOG,30LSNF239UVSXND5UJBBY9VUUFX2IZ,1
"[2264, 3717, 4899, 6064, 6870, 7414]","['up', 'up', 'up', 'up', 'down', 'up']",,,static/json/pachinko_37.json,"['0_2', '1_2', '2_1', '3_1', '4_0', '5_1', '6_0']",1.0,"[21, 21, 21, 12, 12, 0]",static/json/pseudo_rewards_111.json,,,"{'2': 10, '6': 21, '1': -14}","[0, 0, 0, 2, 0, 12]","[2258, 932, 661, 641, 284, 30]",14.0,87.0,,505526,148.0,,19.0,graph,,A12R2U6TBB3OOG,30LSNF239UVSXND5UJBBY9VUUFX2IZ,1
"[2022, 10278, 11118, 13692, 15508, 17092]","['up', 'up', 'up', 'up', 'down', 'up']",,,static/json/pachinko_13.json,"['0_2', '1_2', '2_1', '3_1', '4_0', '5_1', '6_0']",1.0,"[21, 26, 35, 43, 15, 0]",static/json/pseudo_rewards_39.json,,,"{'2': 7, '6': 21, '1': -4}","[0, -5, -9, -8, 28, 15]","[2016, 7741, 318, 2057, 1291, 1060]",21.0,140.0,,529633,52.0,,20.0,graph,,A12R2U6TBB3OOG,30LSNF239UVSXND5UJBBY9VUUFX2IZ,1
"[11232, 11805, 19646, 20214, 21229, 21813]","['up', 'up', 'up', 'up', 'down', 'down']",,,static/json/pachinko_38.json,"['0_2', '1_2', '2_1', '3_1', '4_0', '5_1', '6_1']",2.0,"[33, 25, 0]",static/json/pseudo_rewards_115.json,,,"{'2': 16, '6': 31, '1': -15}","[1, -3, -7, 15, 7, 18]","[11227, 53, 7326, 53, 495, 66]",31.0,58.0,,555102,153.0,,21.0,graph,,A12R2U6TBB3OOG,30LSNF239UVSXND5UJBBY9VUUFX2IZ,1
"[18525, 19469, 23310, 23830, 26101, 26665]","['down', 'down', 'down', 'down', 'down', 'up']",,,static/json/pachinko_22.json,"['0_0', '1_1', '2_1', '3_2', '4_2', '5_3', '6_2']",2.0,"[31, 25, 0]",static/json/pseudo_rewards_67.json,,,"{'2': 10, '6': 30, '1': -10}","[0, -1, -3, 9, 5, 20]","[18519, 429, 3315, 8, 1739, 45]",30.0,56.0,,585098,89.0,,22.0,graph,,A12R2U6TBB3OOG,30LSNF239UVSXND5UJBBY9VUUFX2IZ,1
"[15054, 16099, 16697, 20063, 20584, 21122]","['down', 'down', 'down', 'up', 'up', 'down']",,,static/json/pachinko_3.json,"['0_0', '1_1', '2_1', '3_2', '4_1', '5_1', '6_1']",3.0,"[26, 0]",static/json/pseudo_rewards_11.json,,,"{'2': 11, '6': 23, '1': -5}","[0, 1, -4, 2, 7, 17]","[15050, 532, 85, 2846, 1, 11]",23.0,26.0,,608373,14.0,,23.0,graph,,A12R2U6TBB3OOG,30LSNF239UVSXND5UJBBY9VUUFX2IZ,1
"[1864, 4662, 5655, 7447, 9685, 11343]","['up', 'up', 'up', 'up', 'down', 'down']",,,static/json/pachinko_1.json,"['0_3', '1_3', '2_2', '3_2', '4_1', '5_2', '6_2']",1.0,"[20, 21, 17, 19, 10, 0]",static/json/pseudo_rewards_3.json,,,"{'2': 10, '6': 24, '1': -12}","[4, -1, 4, -2, 9, 10]","[1858, 2277, 471, 1279, 1717, 1144]",24.0,87.0,,621884,4.0,,24.0,graph,,A12R2U6TBB3OOG,30LSNF239UVSXND5UJBBY9VUUFX2IZ,1
"[15340, 15948, 16528, 17200, 18581, 19174]","['up', 'up', 'up', 'down', 'down', 'down']",,,static/json/pachinko_8.json,"['0_2', '1_2', '2_1', '3_1', '4_1', '5_2', '6_2']",0.0,[],,,,"{'2': 8, '6': 26, '1': -20}","[-1, 1, 1, -4, 20, 9]","[15339, 91, 72, 161, 859, 85]",26.0,0.0,,659129,35.0,,25.0,graph,,A12R2U6TBB3OOG,30LSNF239UVSXND5UJBBY9VUUFX2IZ,1
"[95001, 95516, 99434, 100044, 106339, 106923]","['down', 'down', 'down', 'down', 'down', 'down']",,,static/json/pachinko_2.json,"['0_0', '1_1', '2_1', '3_2', '4_2', '5_3', '6_3']",2.0,"[37, 33, 0]",static/json/pseudo_rewards_7.json,,,"{'2': 3, '6': 39, '1': -22}","[0, 2, 9, -5, 17, 16]","[94995, 5, 3378, 96, 5771, 61]",39.0,70.0,,768754,9.0,,26.0,graph,,A12R2U6TBB3OOG,30LSNF239UVSXND5UJBBY9VUUFX2IZ,1
"[9101, 9736, 10321, 11825, 12516, 13099]","['down', 'down', 'down', 'down', 'down', 'up']",,,static/json/pachinko_27.json,"['0_0', '1_1', '2_1', '3_2', '4_2', '5_3', '6_2']",3.0,"[32, 0]",static/json/pseudo_rewards_83.json,,,"{'2': 13, '6': 33, '1': -4}","[0, 0, 1, 12, 16, 4]","[9095, 122, 69, 985, 185, 64]",33.0,32.0,,784401,110.0,,27.0,graph,,A12R2U6TBB3OOG,30LSNF239UVSXND5UJBBY9VUUFX2IZ,1
"[1384, 2701, 12359, 13941, 14752, 16437]","['down', 'down', 'down', 'up', 'up', 'down']",,,static/json/pachinko_25.json,"['0_0', '1_1', '2_1', '3_2', '4_1', '5_1', '6_1']",1.0,"[26, 20, 24, 17, -16, 0]",static/json/pseudo_rewards_75.json,,,"{'2': 10, '6': 26, '1': -1}","[0, 6, -8, 7, 10, -16]","[1380, 802, 9147, 1062, 288, 1159]",-1.0,71.0,,803237,100.0,,28.0,graph,,A12R2U6TBB3OOG,30LSNF239UVSXND5UJBBY9VUUFX2IZ,1
"[22886, 23800, 24385, 28065, 28647, 29293]","['up', 'up', 'up', 'up', 'down', 'down']",,,static/json/pachinko_15.json,"['0_2', '1_2', '2_1', '3_1', '4_0', '5_1', '6_1']",3.0,"[31, 0]",static/json/pseudo_rewards_47.json,,,"{'2': 8, '6': 35, '1': -4}","[1, -2, 0, 8, 4, 19]","[22881, 398, 66, 3164, 69, 133]",30.0,31.0,,835253,62.0,,29.0,graph,,A12R2U6TBB3OOG,30LSNF239UVSXND5UJBBY9VUUFX2IZ,1
"[18752, 19277, 19802, 20335, 20994, 21552]","['down', 'down', 'up', 'up', 'up', 'up']",,,static/json/pachinko_32.json,"['0_1', '1_2', '2_2', '3_2', '4_1', '5_1', '6_0']",0.0,[],,,,"{'2': 1, '6': 34, '1': -12}","[0, 1, 5, -3, 23, 8]","[18752, 11, 4, 3, 127, 55]",34.0,0.0,,860792,131.0,,30.0,graph,,A12R2U6TBB3OOG,30LSNF239UVSXND5UJBBY9VUUFX2IZ,1
"[7041, 8007, 8624, 9144, 9697, 10252]","['down', 'down', 'down', 'down', 'up', 'down']",,,static/json/pachinko_16.json,"['0_0', '1_1', '2_1', '3_2', '4_2', '5_2', '6_2']",0.0,[],,,,"{'2': 23, '6': 37, '1': -1}","[-2, 2, 6, -2, 23, 10]","[7041, 450, 99, 2, 24, 43]",37.0,0.0,,900276,67.0,,31.0,graph,,A12R2U6TBB3OOG,30LSNF239UVSXND5UJBBY9VUUFX2IZ,1
"[5609, 6367, 8601, 9589, 14632, 15459]","['up', 'down', 'down', 'up', 'up', 'down']",,,static/json/pachinko_34.json,"['0_1', '1_1', '2_1', '3_2', '4_1', '5_1', '6_1']",2.0,"[28, 20, 0]",static/json/pseudo_rewards_103.json,,,"{'2': 11, '6': 34, '1': -5}","[-2, 8, 10, -2, 20, 0]","[5605, 251, 1709, 473, 4526, 313]",34.0,48.0,,935058,137.0,,32.0,graph,,A12R2U6TBB3OOG,30LSNF239UVSXND5UJBBY9VUUFX2IZ,1
"[12148, 12746, 13399, 38261, 38938, 39513]","['down', 'down', 'down', 'down', 'up', 'up']",,,static/json/pachinko_4.json,"['0_1', '1_2', '2_2', '3_3', '4_3', '5_3', '6_2']",0.0,[],,,,"{'2': 15, '6': 36, '1': -8}","[2, 0, -2, 8, 10, 18]","[12148, 96, 134, 24346, 162, 58]",36.0,0.0,,979206,19.0,,33.0,graph,,A12R2U6TBB3OOG,30LSNF239UVSXND5UJBBY9VUUFX2IZ,1
"[50981, 51818, 52372, 53144, 53723, 54252]","['down', 'down', 'down', 'down', 'up', 'up']",,,static/json/pachinko_12.json,"['0_1', '1_2', '2_2', '3_3', '4_3', '5_3', '6_2']",0.0,[],,,,"{'2': 18, '6': 34, '1': -3}","[0, -2, -1, 4, 13, 20]","[50981, 325, 46, 252, 61, 6]",34.0,0.0,,1036084,51.0,,34.0,graph,,A12R2U6TBB3OOG,30LSNF239UVSXND5UJBBY9VUUFX2IZ,1
"[41456, 42405, 42983, 56439, 57141, 57736]","['down', 'down', 'up', 'up', 'down', 'down']",,,static/json/pachinko_31.json,"['0_1', '1_2', '2_2', '3_2', '4_1', '5_2', '6_2']",3.0,"[16, 0]",static/json/pseudo_rewards_95.json,,,"{'2': 9, '6': 23, '1': -3}","[1, 0, 6, 7, 7, 2]","[41450, 430, 61, 12943, 191, 81]",23.0,16.0,,1096192,126.0,,35.0,graph,,A12R2U6TBB3OOG,30LSNF239UVSXND5UJBBY9VUUFX2IZ,1
"[26817, 27420, 28394, 28993, 29584, 30207]","['down', 'up', 'up', 'up', 'up', 'down']",,,static/json/pachinko_0.json,"['0_2', '1_3', '2_2', '3_2', '4_1', '5_1', '6_1']",0.0,[],,,,"{'2': 23, '6': 38, '1': -1}","[1, 3, 1, -8, -1, 35]","[26817, 107, 459, 80, 71, 105]",31.0,0.0,,1128909,3.0,,36.0,graph,,A12R2U6TBB3OOG,30LSNF239UVSXND5UJBBY9VUUFX2IZ,1
"[10079, 10678, 11381, 19255, 19929, 20573]","['up', 'down', 'down', 'down', 'up', 'down']",,,static/json/pachinko_19.json,"['0_0', '1_0', '2_0', '3_1', '4_1', '5_1', '6_1']",3.0,"[35, 0]",static/json/pseudo_rewards_59.json,,,"{'2': 23, '6': 36, '1': -2}","[-5, 3, 3, 3, 4, 28]","[10074, 93, 194, 7365, 159, 125]",36.0,35.0,,1151349,78.0,,37.0,graph,,A12R2U6TBB3OOG,30LSNF239UVSXND5UJBBY9VUUFX2IZ,1
"[157304, 157916, 159548, 160572, 161596, 162278]","['down', 'down', 'down', 'down', 'up', 'up']",,,static/json/pachinko_26.json,"['0_1', '1_2', '2_2', '3_3', '4_3', '5_3', '6_2']",2.0,"[28, 31, 0]",static/json/pseudo_rewards_79.json,,,"{'2': 4, '6': 28, '1': -8}","[0, 0, 0, -3, 24, 7]","[157296, 114, 1104, 519, 507, 174]",28.0,59.0,,1321724,105.0,,38.0,graph,,A12R2U6TBB3OOG,30LSNF239UVSXND5UJBBY9VUUFX2IZ,1
"[33051, 33704, 34263, 38734, 39348, 39977]","['down', 'down', 'down', 'up', 'up', 'down']",,,static/json/pachinko_35.json,"['0_0', '1_1', '2_1', '3_2', '4_1', '5_1', '6_1']",3.0,"[16, 0]",static/json/pseudo_rewards_107.json,,,"{'2': 14, '6': 29, '1': -8}","[0, 6, 7, 4, 9, 3]","[33046, 139, 54, 3955, 104, 120]",29.0,16.0,,1364314,142.0,,39.0,graph,,A12R2U6TBB3OOG,30LSNF239UVSXND5UJBBY9VUUFX2IZ,1
"[25157, 52018, 59455, 78653, 87675, 92039]","['up', 'up', 'up', 'up', 'down', 'down']",,,static/json/pachinko_1.json,"['0_3', '1_3', '2_2', '3_2', '4_1', '5_2', '6_2']",2.0,"[21, 19, 0]",static/json/pseudo_rewards_4.json,,,"{'2': 10, '6': 24, '1': -12}","[4, -1, 4, -2, 9, 10]","[25129, 26342, 6891, 18682, 8480, 3852]",24.0,40.0,,527322,5.0,,0.0,graph,,A13XXMDHOULEZ7,38BQUHLA9W0S0DS12W70XF5ECTDOM7,2
"[13666, 18133, 35248, 56165, 60802, 62297]","['down', 'up', 'down', 'down', 'down', 'up']",,,static/json/pachinko_14.json,"['0_0', '1_1', '2_0', '3_1', '4_1', '5_2', '6_1']",3.0,"[12, 0]",static/json/pseudo_rewards_44.json,,,"{'2': 10, '6': 21, '1': -2}","[0, 3, 6, 2, 0, -12]","[13630, 3953, 16601, 20378, 4125, 987]",-1.0,12.0,,594920,58.0,,1.0,graph,,A13XXMDHOULEZ7,38BQUHLA9W0S0DS12W70XF5ECTDOM7,2
"[13832, 22668, 24702, 31038, 34881, 52153]","['up', 'down', 'up', 'down', 'down', 'down']",,,static/json/pachinko_36.json,"['0_0', '1_0', '2_0', '3_0', '4_0', '5_1', '6_1']",1.0,"[30, 34, 32, 16, 16, 0]",static/json/pseudo_rewards_108.json,,,"{'2': 12, '6': 27, '1': -11}","[-3, -4, 2, 16, 0, 16]","[13802, 8292, 1500, 5805, 3303, 16737]",27.0,128.0,,651790,144.0,,2.0,graph,,A13XXMDHOULEZ7,38BQUHLA9W0S0DS12W70XF5ECTDOM7,2
"[3309, 7441, 21735, 33542, 48916, 83280]","['up', 'down', 'up', 'down', 'down', 'down']",,,static/json/pachinko_24.json,"['0_0', '1_0', '2_0', '3_0', '4_0', '5_1', '6_1']",1.0,"[14, 9, 8, 8, 11, 0]",static/json/pseudo_rewards_72.json,,,"{'2': 16, '6': 29, '1': -3}","[2, 5, 1, 0, -3, -28]","[3260, 3590, 13743, 11274, 14838, 33830]",-23.0,50.0,,739658,96.0,,3.0,graph,,A13XXMDHOULEZ7,38BQUHLA9W0S0DS12W70XF5ECTDOM7,2
"[4098, 8195, 12333, 14404, 26171, 27038]","['up', 'down', 'down', 'up', 'down', 'down']",,,static/json/pachinko_3.json,"['0_0', '1_0', '2_0', '3_1', '4_0', '5_1', '6_1']",0.0,[],,,,"{'2': 11, '6': 23, '1': -5}","[0, 3, -5, 6, -10, 17]","[4098, 3583, 3621, 1559, 11260, 360]",11.0,0.0,,771479,15.0,,4.0,graph,,A13XXMDHOULEZ7,38BQUHLA9W0S0DS12W70XF5ECTDOM7,2
"[38692, 39690, 46094, 51010, 52921, 54149]","['down', 'down', 'down', 'down', 'up', 'up']",,,static/json/pachinko_26.json,"['0_1', '1_2', '2_2', '3_3', '4_3', '5_3', '6_2']",3.0,"[28, 0]",static/json/pseudo_rewards_80.json,,,"{'2': 4, '6': 28, '1': -8}","[0, 0, 0, -3, 24, 7]","[38653, 479, 5883, 4376, 1395, 707]",28.0,28.0,,829538,106.0,,5.0,graph,,A13XXMDHOULEZ7,38BQUHLA9W0S0DS12W70XF5ECTDOM7,2
"[87772, 90155, 164930, 173931, 176224, 190091]","['up', 'down', 'down', 'up', 'up', 'down']",,,static/json/pachinko_34.json,"['0_1', '1_1', '2_1', '3_2', '4_1', '5_1', '6_1']",3.0,"[18, 0]",static/json/pseudo_rewards_104.json,,,"{'2': 11, '6': 34, '1': -5}","[-2, 8, 10, -2, 20, 0]","[87732, 1873, 74267, 8461, 1782, 13348]",34.0,18.0,,1023798,138.0,,6.0,graph,,A13XXMDHOULEZ7,38BQUHLA9W0S0DS12W70XF5ECTDOM7,2
"[103160, 131931, 139858, 189326, 203809, 204950]","['down', 'down', 'down', 'down', 'down', 'down']",,,static/json/pachinko_18.json,"['0_0', '1_1', '2_1', '3_2', '4_2', '5_3', '6_3']",3.0,"[36, 0]",static/json/pseudo_rewards_56.json,,,"{'2': 16, '6': 37, '1': -6}","[0, 0, 1, 14, 1, 21]","[103131, 28252, 7411, 48924, 13969, 628]",37.0,36.0,,1232047,74.0,,7.0,graph,,A13XXMDHOULEZ7,38BQUHLA9W0S0DS12W70XF5ECTDOM7,2
"[30669, 49068, 55613, 66886, 70579, 77136]","['up', 'down', 'up', 'down', 'up', 'up']",,,static/json/pachinko_29.json,"['0_3', '1_3', '2_3', '3_3', '4_3', '5_3', '6_2']",2.0,"[35, 37, 0]",static/json/pseudo_rewards_88.json,,,"{'2': 7, '6': 27, '1': -37}","[-2, -6, 3, -5, 12, 25]","[30633, 17878, 6004, 10764, 3150, 6049]",27.0,72.0,,1313567,117.0,,8.0,graph,,A13XXMDHOULEZ7,38BQUHLA9W0S0DS12W70XF5ECTDOM7,2
"[346940, 348052, 350657, 368295, 378383, 380278]","['down', 'down', 'down', 'up', 'down', 'up']",,,static/json/pachinko_25.json,"['0_0', '1_1', '2_1', '3_2', '4_1', '5_2', '6_1']",2.0,"[20, 17, 0]",static/json/pseudo_rewards_76.json,,,"{'2': 10, '6': 26, '1': -1}","[0, 6, -8, 7, -6, 23]","[346903, 574, 2039, 17122, 9555, 1372]",22.0,37.0,,1697347,101.0,,9.0,graph,,A13XXMDHOULEZ7,38BQUHLA9W0S0DS12W70XF5ECTDOM7,2
"[25617, 31938, 41754, 44864, 46287, 49285]","['up', 'down', 'down', 'down', 'up', 'down']",,,static/json/pachinko_35.json,"['0_0', '1_0', '2_0', '3_1', '4_1', '5_1', '6_1']",0.0,[],,,,"{'2': 14, '6': 29, '1': -8}","[1, 1, 3, 1, 9, 3]","[25616, 5802, 9302, 2597, 902, 2502]",18.0,0.0,,1749990,143.0,,10.0,graph,,A13XXMDHOULEZ7,38BQUHLA9W0S0DS12W70XF5ECTDOM7,2
"[161623, 166351, 171271, 190715, 196699, 202483]","['up', 'up', 'down', 'up', 'up', 'down']",,,static/json/pachinko_0.json,"['0_2', '1_2', '2_1', '3_2', '4_1', '5_1', '6_1']",1.0,"[38, 39, 26, 34, 35, 0]",static/json/pseudo_rewards_0.json,,,"{'2': 23, '6': 38, '1': -1}","[0, -1, 13, -8, -1, 35]","[161573, 4195, 4382, 18909, 5444, 5247]",38.0,172.0,,1955586,0.0,,11.0,graph,,A13XXMDHOULEZ7,38BQUHLA9W0S0DS12W70XF5ECTDOM7,2
"[45538, 46670, 76398, 124490, 125539, 127491]","['down', 'down', 'up', 'up', 'up', 'up']",,,static/json/pachinko_31.json,"['0_1', '1_2', '2_2', '3_2', '4_1', '5_1', '6_0']",0.0,[],,,,"{'2': 9, '6': 23, '1': -3}","[1, 0, 6, 7, 2, 3]","[45536, 610, 29207, 47585, 537, 1438]",19.0,0.0,,2086215,127.0,,12.0,graph,,A13XXMDHOULEZ7,38BQUHLA9W0S0DS12W70XF5ECTDOM7,2
"[186263, 187646, 193385, 195412, 197122, 198324]","['down', 'down', 'up', 'down', 'up', 'down']",,,static/json/pachinko_15.json,"['0_2', '1_3', '2_3', '3_3', '4_3', '5_3', '6_3']",0.0,[],,,,"{'2': 8, '6': 35, '1': -4}","[-1, 4, 6, 0, 19, 7]","[186263, 870, 5242, 1518, 1194, 681]",35.0,0.0,,2289357,63.0,,13.0,graph,,A13XXMDHOULEZ7,38BQUHLA9W0S0DS12W70XF5ECTDOM7,2
"[119621, 120476, 123254, 133029, 134449, 137906]","['down', 'down', 'down', 'down', 'down', 'up']",,,static/json/pachinko_22.json,"['0_0', '1_1', '2_1', '3_2', '4_2', '5_3', '6_2']",3.0,"[34, 0]",static/json/pseudo_rewards_68.json,,,"{'2': 10, '6': 30, '1': -10}","[0, -1, -3, 9, 5, 20]","[119593, 328, 2259, 9239, 906, 2946]",30.0,34.0,,2430296,90.0,,14.0,graph,,A13XXMDHOULEZ7,38BQUHLA9W0S0DS12W70XF5ECTDOM7,2
"[95121, 112216, 113084, 121117, 123403, 128517]","['up', 'down', 'down', 'down', 'down', 'up']",,,static/json/pachinko_20.json,"['0_0', '1_0', '2_0', '3_1', '4_1', '5_2', '6_1']",1.0,"[19, 20, 14, 20, 13, 0]",static/json/pseudo_rewards_60.json,,,"{'2': 13, '6': 36, '1': -4}","[0, -1, 6, -6, 7, 13]","[95086, 16541, 333, 7520, 1759, 4573]",19.0,86.0,,2563401,80.0,,15.0,graph,,A13XXMDHOULEZ7,38BQUHLA9W0S0DS12W70XF5ECTDOM7,2
"[48029, 48843, 49782, 51028, 56851, 59244]","['down', 'down', 'down', 'down', 'down', 'up']",,,static/json/pachinko_27.json,"['0_0', '1_1', '2_1', '3_2', '4_2', '5_3', '6_2']",0.0,[],,,,"{'2': 13, '6': 33, '1': -4}","[0, 0, 1, 12, 16, 4]","[48028, 298, 421, 733, 5324, 1884]",33.0,0.0,,2625420,111.0,,16.0,graph,,A13XXMDHOULEZ7,38BQUHLA9W0S0DS12W70XF5ECTDOM7,2
"[56936, 74648, 112359, 119579, 122695, 124812]","['up', 'up', 'up', 'down', 'down', 'down']",,,static/json/pachinko_37.json,"['0_2', '1_2', '2_1', '3_1', '4_1', '5_2', '6_2']",2.0,"[21, 2, 0]",static/json/pseudo_rewards_112.json,,,"{'2': 10, '6': 21, '1': -14}","[0, 0, 0, 19, -3, 5]","[56908, 17201, 37174, 6703, 2582, 1604]",21.0,23.0,,2752925,149.0,,17.0,graph,,A13XXMDHOULEZ7,38BQUHLA9W0S0DS12W70XF5ECTDOM7,2
"[117847, 128429, 130964, 138773, 141035, 146911]","['down', 'up', 'up', 'down', 'down', 'up']",,,static/json/pachinko_21.json,"['0_0', '1_1', '2_0', '3_0', '4_0', '5_1', '6_0']",2.0,"[37, 41, 0]",static/json/pseudo_rewards_64.json,,,"{'2': 14, '6': 36, '1': -16}","[1, -2, -4, 0, 6, 35]","[117804, 10076, 1991, 7288, 1732, 5376]",36.0,78.0,,2903111,85.0,,18.0,graph,,A13XXMDHOULEZ7,38BQUHLA9W0S0DS12W70XF5ECTDOM7,2
"[68818, 69841, 71267, 71960, 72704, 76992]","['down', 'up', 'down', 'down', 'down', 'up']",,,static/json/pachinko_17.json,"['0_1', '1_2', '2_1', '3_2', '4_2', '5_3', '6_2']",2.0,"[27, 22, 0]",static/json/pseudo_rewards_52.json,,,"{'2': 9, '6': 28, '1': -8}","[-1, 2, 3, 2, 18, 4]","[68787, 501, 882, 174, 211, 3789]",28.0,49.0,,2984463,69.0,,19.0,graph,,A13XXMDHOULEZ7,38BQUHLA9W0S0DS12W70XF5ECTDOM7,2
"[98016, 224290, 225031, 226791, 227804, 229177]","['down', 'down', 'down', 'down', 'up', 'up']",,,static/json/pachinko_12.json,"['0_1', '1_2', '2_2', '3_3', '4_3', '5_3', '6_2']",1.0,"[34, 36, 37, 33, 20, 0]",static/json/pseudo_rewards_36.json,,,"{'2': 18, '6': 34, '1': -3}","[0, -2, -1, 4, 13, 20]","[97982, 125725, 209, 1245, 472, 858]",34.0,160.0,,3216831,48.0,,20.0,graph,,A13XXMDHOULEZ7,38BQUHLA9W0S0DS12W70XF5ECTDOM7,2
"[22378, 35919, 36962, 38400, 39684, 46617]","['down', 'down', 'up', 'up', 'down', 'down']",,,static/json/pachinko_10.json,"['0_1', '1_2', '2_2', '3_2', '4_1', '5_2', '6_2']",3.0,"[36, 0]",static/json/pseudo_rewards_32.json,,,"{'2': 27, '6': 39, '1': -15}","[0, -1, 4, 0, 28, 8]","[22343, 13030, 526, 888, 748, 6413]",39.0,36.0,,3266136,42.0,,21.0,graph,,A13XXMDHOULEZ7,38BQUHLA9W0S0DS12W70XF5ECTDOM7,2
"[12399, 38820, 42489, 47431, 49707, 55757]","['down', 'up', 'down', 'down', 'down', 'up']",,,static/json/pachinko_28.json,"['0_1', '1_2', '2_1', '3_2', '4_2', '5_3', '6_2']",1.0,"[33, 25, 25, 23, 22, 0]",static/json/pseudo_rewards_84.json,,,"{'2': 9, '6': 33, '1': -3}","[0, 8, 0, 2, 1, 22]","[12368, 25883, 3135, 4400, 1735, 5539]",33.0,128.0,,3324948,112.0,,22.0,graph,,A13XXMDHOULEZ7,38BQUHLA9W0S0DS12W70XF5ECTDOM7,2
"[12865, 63901, 65120, 66241, 72316, 77452]","['up', 'down', 'up', 'up', 'down', 'down']",,,static/json/pachinko_7.json,"['0_3', '1_3', '2_3', '3_3', '4_2', '5_3', '6_3']",0.0,[],,,,"{'2': 18, '6': 31, '1': -7}","[0, 0, 3, 4, 3, 21]","[12865, 50524, 712, 601, 5560, 4613]",31.0,0.0,,3405706,31.0,,23.0,graph,,A13XXMDHOULEZ7,38BQUHLA9W0S0DS12W70XF5ECTDOM7,2
"[68142, 69979, 117265, 162864, 163464, 165360]","['down', 'down', 'down', 'down', 'down', 'down']",,,static/json/pachinko_6.json,"['0_0', '1_1', '2_1', '3_2', '4_2', '5_3', '6_3']",3.0,"[32, 0]",static/json/pseudo_rewards_20.json,,,"{'2': 12, '6': 35, '1': -1}","[1, 1, 1, -9, 20, 21]","[68105, 1320, 46772, 45067, 80, 1375]",35.0,32.0,,3574102,26.0,,24.0,graph,,A13XXMDHOULEZ7,38BQUHLA9W0S0DS12W70XF5ECTDOM7,2
"[14753, 34397, 36235, 38115, 42501, 43867]","['down', 'down', 'up', 'down', 'up', 'up']",,,static/json/pachinko_23.json,"['0_0', '1_1', '2_1', '3_1', '4_1', '5_1', '6_0']",0.0,[],,,,"{'2': 25, '6': 36, '1': -9}","[-3, -1, 6, 6, 6, 22]","[14753, 19129, 1318, 1365, 3868, 850]",36.0,0.0,,3620863,95.0,,25.0,graph,,A13XXMDHOULEZ7,38BQUHLA9W0S0DS12W70XF5ECTDOM7,2
"[82285, 83118, 86434, 87915, 88742, 90519]","['up', 'up', 'up', 'down', 'down', 'down']",,,static/json/pachinko_8.json,"['0_2', '1_2', '2_1', '3_1', '4_1', '5_2', '6_2']",1.0,"[27, 26, 25, 29, 9, 0]",static/json/pseudo_rewards_24.json,,,"{'2': 8, '6': 26, '1': -20}","[-1, 1, 1, -4, 20, 9]","[82254, 290, 2795, 942, 285, 1264]",26.0,116.0,,3716246,32.0,,26.0,graph,,A13XXMDHOULEZ7,38BQUHLA9W0S0DS12W70XF5ECTDOM7,2
"[45239, 46838, 48080, 49354, 50119, 50817]","['up', 'down', 'down', 'down', 'up', 'up']",,,static/json/pachinko_30.json,"['0_0', '1_0', '2_0', '3_1', '4_1', '5_1', '6_0']",3.0,"[16, 0]",static/json/pseudo_rewards_92.json,,,"{'2': 1, '6': 22, '1': -17}","[-1, 0, 7, -3, 10, 9]","[45198, 1081, 722, 742, 264, 194]",22.0,16.0,,3769569,122.0,,27.0,graph,,A13XXMDHOULEZ7,38BQUHLA9W0S0DS12W70XF5ECTDOM7,2
"[77799, 78918, 87113, 90934, 93551, 101250]","['down', 'down', 'down', 'down', 'up', 'down']",,,static/json/pachinko_9.json,"['0_1', '1_2', '2_2', '3_3', '4_3', '5_3', '6_3']",2.0,"[28, 18, 0]",static/json/pseudo_rewards_28.json,,,"{'2': 3, '6': 27, '1': -15}","[-1, 0, 0, 10, 17, 1]","[77766, 607, 7661, 3309, 2090, 7192]",27.0,46.0,,3873719,37.0,,28.0,graph,,A13XXMDHOULEZ7,38BQUHLA9W0S0DS12W70XF5ECTDOM7,2
"[66858, 67517, 68473, 69377, 70827, 71822]","['down', 'down', 'down', 'down', 'up', 'up']",,,static/json/pachinko_4.json,"['0_1', '1_2', '2_2', '3_3', '4_3', '5_3', '6_2']",1.0,"[34, 34, 36, 28, 18, 0]",static/json/pseudo_rewards_12.json,,,"{'2': 15, '6': 36, '1': -8}","[2, 0, -2, 8, 10, 18]","[66812, 116, 433, 373, 919, 484]",36.0,150.0,,3948186,16.0,,29.0,graph,,A13XXMDHOULEZ7,38BQUHLA9W0S0DS12W70XF5ECTDOM7,2
"[60066, 60992, 67465, 69187, 87508, 89512]","['down', 'down', 'down', 'down', 'down', 'down']",,,static/json/pachinko_2.json,"['0_0', '1_1', '2_1', '3_2', '4_2', '5_3', '6_3']",3.0,"[28, 0]",static/json/pseudo_rewards_8.json,,,"{'2': 3, '6': 39, '1': -22}","[0, 2, 9, -5, 17, 16]","[60040, 409, 5952, 1182, 17828, 1484]",39.0,28.0,,4040452,10.0,,30.0,graph,,A13XXMDHOULEZ7,38BQUHLA9W0S0DS12W70XF5ECTDOM7,2
"[39055, 56512, 58006, 60308, 68308, 72735]","['down', 'down', 'down', 'down', 'up', 'down']",,,static/json/pachinko_16.json,"['0_0', '1_1', '2_1', '3_2', '4_2', '5_2', '6_2']",1.0,"[39, 37, 31, 33, 10, 0]",static/json/pseudo_rewards_48.json,,,"{'2': 23, '6': 37, '1': -1}","[-2, 2, 6, -2, 23, 10]","[39027, 16918, 942, 1791, 7488, 3885]",37.0,150.0,,4117967,64.0,,31.0,graph,,A13XXMDHOULEZ7,38BQUHLA9W0S0DS12W70XF5ECTDOM7,2
"[53304, 56020, 60910, 66691, 70114, 73927]","['down', 'down', 'up', 'down', 'up', 'down']",,,static/json/pachinko_5.json,"['0_0', '1_1', '2_1', '3_1', '4_1', '5_1', '6_1']",2.0,"[29, 23, 0]",static/json/pseudo_rewards_16.json,,,"{'2': 11, '6': 31, '1': -29}","[0, 2, 2, 4, 1, 22]","[53269, 2201, 4351, 5258, 2894, 3295]",31.0,52.0,,4195965,21.0,,32.0,graph,,A13XXMDHOULEZ7,38BQUHLA9W0S0DS12W70XF5ECTDOM7,2
"[117319, 118105, 118741, 119583, 121292, 121994]","['up', 'up', 'up', 'up', 'down', 'down']",,,static/json/pachinko_38.json,"['0_2', '1_2', '2_1', '3_1', '4_0', '5_1', '6_1']",3.0,"[40, 0]",static/json/pseudo_rewards_116.json,,,"{'2': 16, '6': 31, '1': -15}","[1, -3, -7, 15, 7, 18]","[117283, 272, 126, 294, 1212, 181]",31.0,40.0,,4321070,154.0,,33.0,graph,,A13XXMDHOULEZ7,38BQUHLA9W0S0DS12W70XF5ECTDOM7,2
"[83853, 85203, 86145, 89008, 92726, 93745]","['up', 'down', 'down', 'down', 'up', 'down']",,,static/json/pachinko_19.json,"['0_0', '1_0', '2_0', '3_1', '4_1', '5_1', '6_1']",0.0,[],,,,"{'2': 23, '6': 36, '1': -2}","[-5, 3, 3, 3, 4, 28]","[83852, 838, 431, 2345, 3196, 500]",36.0,0.0,,4417916,79.0,,34.0,graph,,A13XXMDHOULEZ7,38BQUHLA9W0S0DS12W70XF5ECTDOM7,2
"[68352, 68971, 69574, 70405, 71701, 72704]","['down', 'down', 'down', 'down', 'up', 'up']",,,static/json/pachinko_11.json,"['0_1', '1_2', '2_2', '3_3', '4_3', '5_3', '6_2']",0.0,[],,,,"{'2': 7, '6': 30, '1': -21}","[1, -1, 9, -6, 2, 25]","[68351, 115, 84, 316, 778, 499]",30.0,0.0,,4494179,47.0,,35.0,graph,,A13XXMDHOULEZ7,38BQUHLA9W0S0DS12W70XF5ECTDOM7,2
"[124498, 125356, 134383, 135491, 143466, 145454]","['up', 'up', 'up', 'up', 'down', 'up']",,,static/json/pachinko_13.json,"['0_2', '1_2', '2_1', '3_1', '4_0', '5_1', '6_0']",2.0,"[26, 43, 0]",static/json/pseudo_rewards_40.json,,,"{'2': 7, '6': 21, '1': -4}","[0, -5, -9, -8, 28, 15]","[124464, 346, 8481, 599, 7448, 1480]",21.0,69.0,,4642337,53.0,,36.0,graph,,A13XXMDHOULEZ7,38BQUHLA9W0S0DS12W70XF5ECTDOM7,2
"[3681, 22890, 76257, 78089, 80939, 81858]","['up', 'down', 'down', 'down', 'up', 'up']",,,static/json/pachinko_33.json,"['0_1', '1_1', '2_1', '3_2', '4_2', '5_2', '6_1']",2.0,"[25, 27, 0]",static/json/pseudo_rewards_100.json,,,"{'2': 15, '6': 30, '1': -9}","[2, 0, -6, 4, 17, 10]","[3653, 18696, 52820, 1319, 2314, 404]",27.0,52.0,,4726670,133.0,,37.0,graph,,A13XXMDHOULEZ7,38BQUHLA9W0S0DS12W70XF5ECTDOM7,2
"[24350, 25095, 32840, 33375, 34008, 34713]","['down', 'down', 'up', 'up', 'up', 'up']",,,static/json/pachinko_32.json,"['0_1', '1_2', '2_2', '3_2', '4_1', '5_1', '6_0']",1.0,"[34, 33, 28, 31, 8, 0]",static/json/pseudo_rewards_96.json,,,"{'2': 1, '6': 34, '1': -12}","[0, 1, 5, -3, 23, 8]","[24321, 203, 7221, 5, 87, 196]",34.0,134.0,,4764549,128.0,,38.0,graph,,A13XXMDHOULEZ7,38BQUHLA9W0S0DS12W70XF5ECTDOM7,2
"[10917, 24185, 24878, 27320, 28085, 28934]","['up', 'down', 'down', 'up', 'up', 'up']",,,static/json/pachinko_39.json,"['0_2', '1_2', '2_2', '3_3', '4_2', '5_2', '6_1']",0.0,[],,,,"{'2': 17, '6': 36, '1': -5}","[-2, -4, 9, -12, 10, 27]","[10917, 12744, 173, 1930, 247, 346]",28.0,0.0,,4797381,159.0,,39.0,graph,,A13XXMDHOULEZ7,38BQUHLA9W0S0DS12W70XF5ECTDOM7,2
"[13423, 30943, 32621, 35517, 40493, 45021]","['up', 'up', 'up', 'down', 'down', 'down']",,,static/json/pachinko_37.json,"['0_2', '1_2', '2_1', '3_1', '4_1', '5_2', '6_2']",1.0,"[21, 21, 21, 2, 5, 0]",static/json/pseudo_rewards_111.json,,,"{'2': 10, '6': 21, '1': -14}","[0, 0, 0, 19, -3, 5]","[13408, 16995, 1157, 2372, 4443, 4012]",21.0,70.0,,305994,148.0,,0.0,graph,,A16HSMUJ7C7QA7,3KJYX6QCM9BXPPVD0BGMCF754T9JVW,3
"[13894, 14982, 19069, 20005, 21389, 22317]","['down', 'down', 'down', 'down', 'down', 'down']",,,static/json/pachinko_18.json,"['0_0', '1_1', '2_1', '3_2', '4_2', '5_3', '6_3']",2.0,"[37, 22, 0]",static/json/pseudo_rewards_55.json,,,"{'2': 16, '6': 37, '1': -6}","[0, 0, 1, 14, 1, 21]","[13884, 572, 3567, 431, 856, 410]",37.0,59.0,,332058,73.0,,1.0,graph,,A16HSMUJ7C7QA7,3KJYX6QCM9BXPPVD0BGMCF754T9JVW,3
"[9291, 10498, 11818, 14154, 20979, 23275]","['down', 'down', 'down', 'up', 'down', 'down']",,,static/json/pachinko_16.json,"['0_0', '1_1', '2_1', '3_2', '4_1', '5_2', '6_2']",0.0,[],,,,"{'2': 23, '6': 37, '1': -1}","[-2, 2, 6, 3, 4, 10]","[9291, 692, 812, 1832, 6308, 1786]",23.0,0.0,,359178,67.0,,2.0,graph,,A16HSMUJ7C7QA7,3KJYX6QCM9BXPPVD0BGMCF754T9JVW,3
"[24087, 27662, 28398, 29246, 30086, 32663]","['down', 'up', 'up', 'up', 'up', 'down']",,,static/json/pachinko_0.json,"['0_2', '1_3', '2_2', '3_2', '4_1', '5_1', '6_1']",0.0,[],,,,"{'2': 23, '6': 38, '1': -1}","[1, 3, 1, -8, -1, 35]","[24087, 3066, 219, 334, 324, 2066]",31.0,0.0,,395723,3.0,,3.0,graph,,A16HSMUJ7C7QA7,3KJYX6QCM9BXPPVD0BGMCF754T9JVW,3
"[8763, 10963, 13708, 14668, 15596, 19355]","['down', 'down', 'up', 'up', 'up', 'up']",,,static/json/pachinko_32.json,"['0_1', '1_2', '2_2', '3_2', '4_1', '5_1', '6_0']",0.0,[],,,,"{'2': 1, '6': 34, '1': -12}","[0, 1, 5, -3, 23, 8]","[8762, 1690, 2235, 444, 421, 3248]",34.0,0.0,,418139,131.0,,4.0,graph,,A16HSMUJ7C7QA7,3KJYX6QCM9BXPPVD0BGMCF754T9JVW,3
"[11630, 12565, 13429, 19054, 19845, 20629]","['down', 'down', 'down', 'up', 'up', 'up']",,,static/json/pachinko_23.json,"['0_0', '1_1', '2_1', '3_2', '4_1', '5_1', '6_0']",3.0,"[28, 0]",static/json/pseudo_rewards_71.json,,,"{'2': 25, '6': 36, '1': -9}","[-3, -1, 5, 0, 6, 22]","[11617, 424, 355, 5104, 288, 272]",29.0,28.0,,443931,94.0,,5.0,graph,,A16HSMUJ7C7QA7,3KJYX6QCM9BXPPVD0BGMCF754T9JVW,3
"[14463, 15118, 15862, 16807, 18943, 19839]","['down', 'down', 'down', 'down', 'up', 'up']",,,static/json/pachinko_4.json,"['0_1', '1_2', '2_2', '3_3', '4_3', '5_3', '6_2']",0.0,[],,,,"{'2': 15, '6': 36, '1': -8}","[2, 0, -2, 8, 10, 18]","[14462, 152, 229, 440, 1625, 388]",36.0,0.0,,466851,19.0,,6.0,graph,,A16HSMUJ7C7QA7,3KJYX6QCM9BXPPVD0BGMCF754T9JVW,3
"[2999, 8622, 17134, 19805, 23141, 24157]","['down', 'down', 'down', 'up', 'down', 'up']",,,static/json/pachinko_25.json,"['0_0', '1_1', '2_1', '3_2', '4_1', '5_2', '6_1']",1.0,"[26, 20, 24, 17, 23, 0]",static/json/pseudo_rewards_75.json,,,"{'2': 10, '6': 26, '1': -1}","[0, 6, -8, 7, -6, 23]","[2990, 5109, 7989, 2141, 2814, 494]",22.0,110.0,,495842,100.0,,7.0,graph,,A16HSMUJ7C7QA7,3KJYX6QCM9BXPPVD0BGMCF754T9JVW,3
"[4096, 25192, 30023, 32039, 33799, 35072]","['down', 'down', 'up', 'down', 'up', 'down']",,,static/json/pachinko_5.json,"['0_0', '1_1', '2_1', '3_1', '4_1', '5_1', '6_1']",1.0,"[31, 29, 27, 23, 22, 0]",static/json/pseudo_rewards_15.json,,,"{'2': 11, '6': 31, '1': -29}","[0, 2, 2, 4, 1, 22]","[4086, 20571, 4303, 1503, 1247, 752]",31.0,132.0,,534083,20.0,,8.0,graph,,A16HSMUJ7C7QA7,3KJYX6QCM9BXPPVD0BGMCF754T9JVW,3
"[7396, 8620, 12573, 15630, 18181, 18998]","['up', 'down', 'down', 'down', 'up', 'up']",,,static/json/pachinko_30.json,"['0_0', '1_0', '2_0', '3_1', '4_1', '5_1', '6_0']",2.0,"[23, 19, 0]",static/json/pseudo_rewards_91.json,,,"{'2': 1, '6': 22, '1': -17}","[-1, 0, 7, -3, 10, 9]","[7386, 711, 3434, 2536, 2029, 305]",22.0,42.0,,556707,121.0,,9.0,graph,,A16HSMUJ7C7QA7,3KJYX6QCM9BXPPVD0BGMCF754T9JVW,3
"[10754, 11737, 12649, 18896, 19736, 20945]","['down', 'down', 'down', 'up', 'up', 'down']",,,static/json/pachinko_3.json,"['0_0', '1_1', '2_1', '3_2', '4_1', '5_1', '6_1']",3.0,"[26, 0]",static/json/pseudo_rewards_11.json,,,"{'2': 11, '6': 23, '1': -5}","[0, 1, -4, 2, 7, 17]","[10745, 472, 400, 5721, 323, 699]",23.0,26.0,,581042,14.0,,10.0,graph,,A16HSMUJ7C7QA7,3KJYX6QCM9BXPPVD0BGMCF754T9JVW,3
"[9303, 21735, 30213, 31541, 32725, 33941]","['down', 'up', 'up', 'down', 'down', 'up']",,,static/json/pachinko_21.json,"['0_0', '1_1', '2_0', '3_0', '4_0', '5_1', '6_0']",1.0,"[35, 37, 41, 41, 35, 0]",static/json/pseudo_rewards_63.json,,,"{'2': 14, '6': 36, '1': -16}","[1, -2, -4, 0, 6, 35]","[9291, 11910, 7957, 802, 671, 703]",36.0,189.0,,619210,84.0,,11.0,graph,,A16HSMUJ7C7QA7,3KJYX6QCM9BXPPVD0BGMCF754T9JVW,3
"[8500, 9387, 11547, 20268, 22755, 24523]","['down', 'down', 'down', 'down', 'down', 'up']",,,static/json/pachinko_22.json,"['0_0', '1_1', '2_1', '3_2', '4_2', '5_3', '6_2']",2.0,"[31, 25, 0]",static/json/pseudo_rewards_67.json,,,"{'2': 10, '6': 30, '1': -10}","[0, -1, -3, 9, 5, 20]","[8490, 378, 1646, 8209, 1971, 1264]",30.0,56.0,,647154,89.0,,12.0,graph,,A16HSMUJ7C7QA7,3KJYX6QCM9BXPPVD0BGMCF754T9JVW,3
"[14944, 29065, 31504, 38536, 40160, 41193]","['down', 'down', 'down', 'up', 'down', 'up']",,,static/json/pachinko_20.json,"['0_0', '1_1', '2_1', '3_2', '4_1', '5_2', '6_1']",0.0,[],,,,"{'2': 13, '6': 36, '1': -4}","[0, -1, 5, 12, 7, 13]","[14944, 13605, 1927, 6526, 1117, 514]",36.0,0.0,,691491,83.0,,13.0,graph,,A16HSMUJ7C7QA7,3KJYX6QCM9BXPPVD0BGMCF754T9JVW,3
"[17052, 21507, 24235, 26075, 28075, 30251]","['down', 'down', 'down', 'down', 'up', 'up']",,,static/json/pachinko_9.json,"['0_1', '1_2', '2_2', '3_3', '4_3', '5_3', '6_2']",1.0,"[28, 28, 28, 18, 1, 0]",static/json/pseudo_rewards_27.json,,,"{'2': 3, '6': 27, '1': -15}","[-1, 0, 0, 10, 17, 1]","[17041, 3926, 2209, 1311, 1483, 1659]",27.0,103.0,,726226,36.0,,14.0,graph,,A16HSMUJ7C7QA7,3KJYX6QCM9BXPPVD0BGMCF754T9JVW,3
"[5160, 14840, 16536, 23847, 25343, 26503]","['up', 'down', 'up', 'down', 'up', 'up']",,,static/json/pachinko_29.json,"['0_3', '1_3', '2_3', '3_3', '4_3', '5_3', '6_2']",1.0,"[29, 35, 32, 37, 25, 0]",static/json/pseudo_rewards_87.json,,,"{'2': 7, '6': 27, '1': -37}","[-2, -6, 3, -5, 12, 25]","[5150, 9156, 1184, 6795, 974, 636]",27.0,158.0,,756226,116.0,,15.0,graph,,A16HSMUJ7C7QA7,3KJYX6QCM9BXPPVD0BGMCF754T9JVW,3
"[6945, 8193, 18409, 22584, 28578, 29569]","['up', 'down', 'down', 'down', 'down', 'down']",,,static/json/pachinko_24.json,"['0_0', '1_0', '2_0', '3_1', '4_1', '5_2', '6_2']",0.0,[],,,,"{'2': 16, '6': 29, '1': -3}","[2, 5, -2, -2, 12, 1]","[6945, 734, 9698, 3657, 5484, 476]",16.0,0.0,,792724,99.0,,16.0,graph,,A16HSMUJ7C7QA7,3KJYX6QCM9BXPPVD0BGMCF754T9JVW,3
"[57007, 57734, 58446, 60046, 61030, 62406]","['down', 'down', 'down', 'down', 'down', 'up']",,,static/json/pachinko_14.json,"['0_0', '1_1', '2_1', '3_2', '4_2', '5_3', '6_2']",2.0,"[24, 16, 0]",static/json/pseudo_rewards_43.json,,,"{'2': 10, '6': 21, '1': -2}","[0, -4, 6, 2, -2, 18]","[56995, 208, 197, 1088, 464, 864]",20.0,40.0,,858394,57.0,,17.0,graph,,A16HSMUJ7C7QA7,3KJYX6QCM9BXPPVD0BGMCF754T9JVW,3
"[28958, 35461, 36901, 41982, 42997, 44860]","['down', 'down', 'down', 'up', 'up', 'up']",,,static/json/pachinko_33.json,"['0_1', '1_2', '2_2', '3_3', '4_2', '5_2', '6_1']",1.0,"[29, 29, 29, 27, 10, 0]",static/json/pseudo_rewards_99.json,,,"{'2': 15, '6': 30, '1': -9}","[1, 0, 0, 2, 17, 10]","[28945, 5986, 926, 4558, 488, 1351]",30.0,124.0,,907114,132.0,,18.0,graph,,A16HSMUJ7C7QA7,3KJYX6QCM9BXPPVD0BGMCF754T9JVW,3
"[11286, 12157, 29463, 30453, 32838, 33941]","['up', 'up', 'up', 'up', 'down', 'down']",,,static/json/pachinko_38.json,"['0_2', '1_2', '2_1', '3_1', '4_0', '5_1', '6_1']",2.0,"[33, 25, 0]",static/json/pseudo_rewards_115.json,,,"{'2': 16, '6': 31, '1': -15}","[1, -3, -7, 15, 7, 18]","[11275, 360, 16791, 475, 1864, 596]",31.0,58.0,,943929,153.0,,19.0,graph,,A16HSMUJ7C7QA7,3KJYX6QCM9BXPPVD0BGMCF754T9JVW,3
"[11704, 13799, 16623, 24777, 26977, 27784]","['down', 'up', 'up', 'up', 'down', 'down']",,,static/json/pachinko_8.json,"['0_2', '1_3', '2_2', '3_2', '4_1', '5_2', '6_2']",0.0,[],,,,"{'2': 8, '6': 26, '1': -20}","[0, 2, 0, -9, 20, 9]","[11704, 1577, 2318, 7638, 1686, 294]",22.0,0.0,,974747,35.0,,20.0,graph,,A16HSMUJ7C7QA7,3KJYX6QCM9BXPPVD0BGMCF754T9JVW,3
"[6173, 9196, 10381, 13549, 14597, 15693]","['down', 'up', 'down', 'down', 'down', 'up']",,,static/json/pachinko_28.json,"['0_1', '1_2', '2_1', '3_2', '4_2', '5_3', '6_2']",0.0,[],,,,"{'2': 9, '6': 33, '1': -3}","[0, 8, 0, 2, 1, 22]","[6173, 2519, 671, 2654, 535, 580]",33.0,0.0,,993619,115.0,,21.0,graph,,A16HSMUJ7C7QA7,3KJYX6QCM9BXPPVD0BGMCF754T9JVW,3
"[10708, 11836, 13036, 14052, 15275, 16276]","['down', 'down', 'down', 'down', 'up', 'up']",,,static/json/pachinko_26.json,"['0_1', '1_2', '2_2', '3_3', '4_3', '5_3', '6_2']",2.0,"[28, 31, 0]",static/json/pseudo_rewards_79.json,,,"{'2': 4, '6': 28, '1': -8}","[0, 0, 0, -3, 24, 7]","[10697, 615, 673, 499, 696, 489]",28.0,59.0,,1013354,105.0,,22.0,graph,,A16HSMUJ7C7QA7,3KJYX6QCM9BXPPVD0BGMCF754T9JVW,3
"[29647, 32238, 33310, 34118, 35478, 36662]","['down', 'down', 'down', 'down', 'down', 'down']",,,static/json/pachinko_6.json,"['0_0', '1_1', '2_1', '3_2', '4_2', '5_3', '6_3']",2.0,"[33, 41, 0]",static/json/pseudo_rewards_19.json,,,"{'2': 12, '6': 35, '1': -1}","[1, 1, 1, -9, 20, 21]","[29633, 2078, 558, 291, 841, 669]",35.0,74.0,,1053025,25.0,,23.0,graph,,A16HSMUJ7C7QA7,3KJYX6QCM9BXPPVD0BGMCF754T9JVW,3
"[5704, 11999, 13207, 14471, 16119, 17047]","['down', 'down', 'up', 'down', 'down', 'up']",,,static/json/pachinko_17.json,"['0_1', '1_2', '2_2', '3_2', '4_2', '5_3', '6_2']",1.0,"[29, 18, 24, 22, 4, 0]",static/json/pseudo_rewards_51.json,,,"{'2': 9, '6': 28, '1': -8}","[-1, 6, -6, 2, 18, 4]","[5693, 5765, 693, 741, 1121, 417]",23.0,97.0,,1073394,68.0,,24.0,graph,,A16HSMUJ7C7QA7,3KJYX6QCM9BXPPVD0BGMCF754T9JVW,3
"[9711, 10671, 11415, 13511, 14319, 15063]","['down', 'up', 'up', 'down', 'up', 'up']",,,static/json/pachinko_39.json,"['0_2', '1_3', '2_2', '3_2', '4_2', '5_2', '6_1']",3.0,"[35, 0]",static/json/pseudo_rewards_119.json,,,"{'2': 17, '6': 36, '1': -5}","[-2, 3, 0, -2, 10, 27]","[9701, 443, 236, 1575, 292, 234]",36.0,35.0,,1091403,158.0,,25.0,graph,,A16HSMUJ7C7QA7,3KJYX6QCM9BXPPVD0BGMCF754T9JVW,3
"[23035, 27554, 31202, 31986, 33435, 34307]","['up', 'up', 'up', 'up', 'down', 'up']",,,static/json/pachinko_13.json,"['0_2', '1_2', '2_1', '3_1', '4_0', '5_1', '6_0']",1.0,"[21, 26, 35, 43, 15, 0]",static/json/pseudo_rewards_39.json,,,"{'2': 7, '6': 21, '1': -4}","[0, -5, -9, -8, 28, 15]","[23024, 4007, 3122, 272, 922, 360]",21.0,140.0,,1129067,52.0,,26.0,graph,,A16HSMUJ7C7QA7,3KJYX6QCM9BXPPVD0BGMCF754T9JVW,3
"[10135, 11142, 11910, 15206, 16094, 17022]","['up', 'down', 'down', 'down', 'up', 'down']",,,static/json/pachinko_19.json,"['0_0', '1_0', '2_0', '3_1', '4_1', '5_1', '6_1']",3.0,"[35, 0]",static/json/pseudo_rewards_59.json,,,"{'2': 23, '6': 36, '1': -2}","[-5, 3, 3, 3, 4, 28]","[10125, 498, 248, 2769, 382, 411]",36.0,35.0,,1149162,78.0,,27.0,graph,,A16HSMUJ7C7QA7,3KJYX6QCM9BXPPVD0BGMCF754T9JVW,3
"[7022, 10910, 11814, 29926, 34173, 35973]","['down', 'down', 'up', 'up', 'down', 'down']",,,static/json/pachinko_31.json,"['0_1', '1_2', '2_2', '3_2', '4_1', '5_2', '6_2']",3.0,"[16, 0]",static/json/pseudo_rewards_95.json,,,"{'2': 9, '6': 23, '1': -3}","[1, 0, 6, 7, 7, 2]","[7011, 3371, 391, 17595, 3734, 1286]",23.0,16.0,,1188022,126.0,,28.0,graph,,A16HSMUJ7C7QA7,3KJYX6QCM9BXPPVD0BGMCF754T9JVW,3
"[10250, 11281, 13057, 15818, 17554, 18810]","['down', 'down', 'down', 'down', 'up', 'up']",,,static/json/pachinko_11.json,"['0_1', '1_2', '2_2', '3_3', '4_3', '5_3', '6_2']",3.0,"[21, 0]",static/json/pseudo_rewards_35.json,,,"{'2': 7, '6': 30, '1': -21}","[1, -1, 9, -6, 2, 25]","[10239, 519, 1263, 2234, 1227, 749]",30.0,21.0,,1209554,46.0,,29.0,graph,,A16HSMUJ7C7QA7,3KJYX6QCM9BXPPVD0BGMCF754T9JVW,3
"[34314, 35073, 36521, 37594, 39178, 40082]","['down', 'down', 'down', 'down', 'up', 'up']",,,static/json/pachinko_12.json,"['0_1', '1_2', '2_2', '3_3', '4_3', '5_3', '6_2']",0.0,[],,,,"{'2': 18, '6': 34, '1': -3}","[0, -2, -1, 4, 13, 20]","[34313, 250, 932, 555, 1069, 391]",34.0,0.0,,1252859,51.0,,30.0,graph,,A16HSMUJ7C7QA7,3KJYX6QCM9BXPPVD0BGMCF754T9JVW,3
"[6475, 8026, 8914, 11338, 12211, 13571]","['down', 'down', 'up', 'down', 'up', 'down']",,,static/json/pachinko_15.json,"['0_2', '1_3', '2_3', '3_3', '4_3', '5_3', '6_3']",3.0,"[26, 0]",static/json/pseudo_rewards_47.json,,,"{'2': 8, '6': 35, '1': -4}","[-1, 4, 6, 0, 19, 7]","[6445, 1048, 370, 1903, 366, 842]",35.0,26.0,,1269691,62.0,,31.0,graph,,A16HSMUJ7C7QA7,3KJYX6QCM9BXPPVD0BGMCF754T9JVW,3
"[12215, 13086, 17821, 20525, 21597, 22414]","['down', 'down', 'down', 'down', 'up', 'up']",,,static/json/pachinko_2.json,"['0_0', '1_1', '2_1', '3_2', '4_2', '5_2', '6_1']",2.0,"[37, 33, 0]",static/json/pseudo_rewards_7.json,,,"{'2': 3, '6': 39, '1': -22}","[0, 2, 9, -5, 22, 9]","[12204, 362, 4223, 2187, 551, 309]",37.0,70.0,,1294931,9.0,,32.0,graph,,A16HSMUJ7C7QA7,3KJYX6QCM9BXPPVD0BGMCF754T9JVW,3
"[3129, 5601, 7281, 10872, 14616, 16072]","['up', 'up', 'up', 'up', 'down', 'down']",,,static/json/pachinko_1.json,"['0_3', '1_3', '2_2', '3_2', '4_1', '5_2', '6_2']",1.0,"[20, 21, 17, 19, 10, 0]",static/json/pseudo_rewards_3.json,,,"{'2': 10, '6': 24, '1': -12}","[4, -1, 4, -2, 9, 10]","[3119, 1958, 1155, 3078, 3224, 930]",24.0,87.0,,1313876,4.0,,33.0,graph,,A16HSMUJ7C7QA7,3KJYX6QCM9BXPPVD0BGMCF754T9JVW,3
"[7934, 11021, 12860, 16516, 19732, 22309]","['up', 'down', 'down', 'up', 'up', 'down']",,,static/json/pachinko_34.json,"['0_1', '1_1', '2_1', '3_2', '4_1', '5_1', '6_1']",2.0,"[28, 20, 0]",static/json/pseudo_rewards_103.json,,,"{'2': 11, '6': 34, '1': -5}","[-2, 8, 10, -2, 20, 0]","[7922, 2576, 1324, 3138, 2697, 2064]",34.0,48.0,,1339346,137.0,,34.0,graph,,A16HSMUJ7C7QA7,3KJYX6QCM9BXPPVD0BGMCF754T9JVW,3
"[5474, 6665, 8145, 9217, 10345, 11401]","['down', 'down', 'up', 'down', 'up', 'down']",,,static/json/pachinko_10.json,"['0_1', '1_2', '2_2', '3_2', '4_2', '5_2', '6_2']",2.0,"[40, 17, 0]",static/json/pseudo_rewards_31.json,,,"{'2': 27, '6': 39, '1': -15}","[0, -1, 4, 15, 9, 8]","[5463, 688, 960, 557, 611, 541]",35.0,57.0,,1353514,41.0,,35.0,graph,,A16HSMUJ7C7QA7,3KJYX6QCM9BXPPVD0BGMCF754T9JVW,3
"[3990, 4717, 5525, 6413, 7117, 7901]","['down', 'down', 'down', 'up', 'up', 'down']",,,static/json/pachinko_35.json,"['0_0', '1_1', '2_1', '3_2', '4_1', '5_1', '6_1']",3.0,"[16, 0]",static/json/pseudo_rewards_107.json,,,"{'2': 14, '6': 29, '1': -8}","[0, 6, 7, 4, 9, 3]","[3980, 213, 304, 367, 196, 280]",29.0,16.0,,1363978,142.0,,36.0,graph,,A16HSMUJ7C7QA7,3KJYX6QCM9BXPPVD0BGMCF754T9JVW,3
"[4783, 6096, 9864, 11335, 12063, 12799]","['up', 'down', 'down', 'down', 'down', 'down']",,,static/json/pachinko_27.json,"['0_0', '1_0', '2_0', '3_1', '4_1', '5_2', '6_2']",3.0,"[13, 0]",static/json/pseudo_rewards_83.json,,,"{'2': 13, '6': 33, '1': -4}","[2, 1, 1, 0, 3, 7]","[4775, 795, 3263, 961, 214, 216]",14.0,13.0,,1379529,110.0,,37.0,graph,,A16HSMUJ7C7QA7,3KJYX6QCM9BXPPVD0BGMCF754T9JVW,3
"[37589, 38925, 39677, 40261, 41181, 41829]","['up', 'down', 'up', 'up', 'up', 'up']",,,static/json/pachinko_7.json,"['0_3', '1_3', '2_3', '3_3', '4_2', '5_2', '6_1']",3.0,"[28, 0]",static/json/pseudo_rewards_23.json,,,"{'2': 18, '6': 31, '1': -7}","[0, 0, 3, 4, 4, 15]","[37576, 821, 240, 66, 411, 142]",26.0,28.0,,1424331,30.0,,38.0,graph,,A16HSMUJ7C7QA7,3KJYX6QCM9BXPPVD0BGMCF754T9JVW,3
"[1924, 2891, 3563, 4651, 5411, 6427]","['down', 'down', 'down', 'up', 'down', 'down']",,,static/json/pachinko_36.json,"['0_0', '1_1', '2_1', '3_2', '4_1', '5_2', '6_2']",0.0,[],,,,"{'2': 12, '6': 27, '1': -11}","[-2, -2, -3, 4, 0, 2]","[1924, 450, 155, 576, 253, 503]",-1.0,0.0,,1433394,147.0,,39.0,graph,,A16HSMUJ7C7QA7,3KJYX6QCM9BXPPVD0BGMCF754T9JVW,3
"[7482, 8593, 10737, 14248, 15984, 16633]","['up', 'down', 'down', 'down', 'down', 'down']",,,static/json/pachinko_19.json,"['0_0', '1_0', '2_0', '3_1', '4_1', '5_2', '6_2']",2.0,"[38, 32, 0]",static/json/pseudo_rewards_58.json,,,"{'2': 23, '6': 36, '1': -2}","[-5, 3, 3, 3, 4, 5]","[7475, 617, 1623, 3019, 1223, 145]",13.0,70.0,,1273981,77.0,,0.0,graph,,A1A2X0T1XE8K89,3U5JL4WY5K9ZQWHNXJU0UYF726X4XX,4
"[3643, 4451, 6667, 10059, 12722, 13395]","['down', 'down', 'up', 'down', 'up', 'down']",,,static/json/pachinko_31.json,"['0_1', '1_2', '2_2', '3_2', '4_2', '5_2', '6_2']",2.0,"[22, -3, 0]",static/json/pseudo_rewards_94.json,,,"{'2': 9, '6': 23, '1': -3}","[1, 0, 6, 14, -5, 2]","[3640, 303, 1707, 2892, 2163, 173]",18.0,19.0,,1290234,125.0,,1.0,graph,,A1A2X0T1XE8K89,3U5JL4WY5K9ZQWHNXJU0UYF726X4XX,4
"[6226, 7145, 8873, 9433, 9944, 10512]","['down', 'up', 'up', 'down', 'up', 'down']",,,static/json/pachinko_5.json,"['0_0', '1_1', '2_0', '3_0', '4_0', '5_0', '6_0']",0.0,[],,,,"{'2': 11, '6': 31, '1': -29}","[0, 3, 4, -6, -6, -25]","[6225, 430, 1239, 63, 7, 60]",-30.0,0.0,,1302674,23.0,,2.0,graph,,A1A2X0T1XE8K89,3U5JL4WY5K9ZQWHNXJU0UYF726X4XX,4
"[2207, 3814, 5824, 6895, 7718, 9167]","['down', 'down', 'down', 'down', 'up', 'up']",,,static/json/pachinko_26.json,"['0_1', '1_2', '2_2', '3_3', '4_3', '5_3', '6_2']",1.0,"[28, 28, 28, 31, 7, 0]",static/json/pseudo_rewards_78.json,,,"{'2': 4, '6': 28, '1': -8}","[0, 0, 0, -3, 24, 7]","[2204, 1098, 1507, 561, 306, 953]",28.0,122.0,,1315042,104.0,,3.0,graph,,A1A2X0T1XE8K89,3U5JL4WY5K9ZQWHNXJU0UYF726X4XX,4
"[1806, 3301, 5102, 7653, 8197, 8894]","['up', 'up', 'up', 'up', 'down', 'down']",,,static/json/pachinko_38.json,"['0_2', '1_2', '2_1', '3_1', '4_0', '5_1', '6_1']",1.0,"[30, 33, 40, 25, 18, 0]",static/json/pseudo_rewards_114.json,,,"{'2': 16, '6': 31, '1': -15}","[1, -3, -7, 15, 7, 18]","[1804, 984, 1286, 2033, 24, 189]",31.0,146.0,,1327330,152.0,,4.0,graph,,A1A2X0T1XE8K89,3U5JL4WY5K9ZQWHNXJU0UYF726X4XX,4
"[16104, 17350, 17902, 18430, 18966, 19511]","['up', 'up', 'up', 'down', 'down', 'down']",,,static/json/pachinko_37.json,"['0_2', '1_2', '2_1', '3_1', '4_1', '5_2', '6_2']",0.0,[],,,,"{'2': 10, '6': 21, '1': -14}","[0, 0, 0, 19, -3, 5]","[16103, 741, 58, 37, 39, 48]",21.0,0.0,,1348842,151.0,,5.0,graph,,A1A2X0T1XE8K89,3U5JL4WY5K9ZQWHNXJU0UYF726X4XX,4
"[2851, 4299, 5987, 7626, 8844, 9442]","['down', 'up', 'down', 'down', 'up', 'up']",,,static/json/pachinko_30.json,"['0_0', '1_1', '2_0', '3_1', '4_1', '5_1', '6_0']",1.0,"[20, 23, 16, 19, 9, 0]",static/json/pseudo_rewards_90.json,,,"{'2': 1, '6': 22, '1': -17}","[0, -3, 7, -3, 10, 9]","[2848, 940, 1184, 1136, 722, 94]",20.0,87.0,,1360626,120.0,,6.0,graph,,A1A2X0T1XE8K89,3U5JL4WY5K9ZQWHNXJU0UYF726X4XX,4
"[4375, 4878, 5398, 8262, 9214, 9750]","['up', 'up', 'up', 'down', 'down', 'down']",,,static/json/pachinko_8.json,"['0_2', '1_2', '2_1', '3_1', '4_1', '5_2', '6_2']",3.0,"[25, 0]",static/json/pseudo_rewards_26.json,,,"{'2': 8, '6': 26, '1': -20}","[-1, 1, 1, -4, 20, 9]","[4371, 2, 5, 2343, 450, 35]",26.0,25.0,,1372386,34.0,,7.0,graph,,A1A2X0T1XE8K89,3U5JL4WY5K9ZQWHNXJU0UYF726X4XX,4
"[1788, 2450, 3042, 5297, 6624, 7168]","['up', 'up', 'up', 'up', 'down', 'down']",,,static/json/pachinko_1.json,"['0_3', '1_3', '2_2', '3_2', '4_1', '5_2', '6_2']",0.0,[],,,,"{'2': 10, '6': 24, '1': -12}","[4, -1, 4, -2, 9, 10]","[1787, 169, 93, 1764, 822, 50]",24.0,0.0,,1381546,7.0,,8.0,graph,,A1A2X0T1XE8K89,3U5JL4WY5K9ZQWHNXJU0UYF726X4XX,4
"[909, 2459, 2988, 4373, 4892, 5468]","['down', 'up', 'up', 'up', 'up', 'up']",,,static/json/pachinko_13.json,"['0_2', '1_3', '2_2', '3_2', '4_1', '5_1', '6_0']",0.0,[],,,,"{'2': 7, '6': 21, '1': -4}","[2, -5, -1, -12, 15, 15]","[909, 1053, 31, 899, 15, 73]",14.0,0.0,,1388818,55.0,,9.0,graph,,A1A2X0T1XE8K89,3U5JL4WY5K9ZQWHNXJU0UYF726X4XX,4
"[9166, 9670, 10262, 10837, 11389, 11949]","['down', 'down', 'down', 'down', 'up', 'up']",,,static/json/pachinko_9.json,"['0_1', '1_2', '2_2', '3_3', '4_3', '5_3', '6_2']",0.0,[],,,,"{'2': 3, '6': 27, '1': -15}","[-1, 0, 0, 10, 17, 1]","[9166, 7, 83, 74, 58, 69]",27.0,0.0,,1402506,39.0,,10.0,graph,,A1A2X0T1XE8K89,3U5JL4WY5K9ZQWHNXJU0UYF726X4XX,4
"[1560, 3633, 5800, 7096, 8352, 8913]","['down', 'down', 'down', 'down', 'down', 'down']",,,static/json/pachinko_14.json,"['0_0', '1_1', '2_1', '3_2', '4_2', '5_3', '6_3']",1.0,"[21, 24, 18, 16, 18, 0]",static/json/pseudo_rewards_42.json,,,"{'2': 10, '6': 21, '1': -2}","[0, -4, 6, 2, -2, 11]","[1557, 1569, 1652, 779, 749, 42]",13.0,97.0,,1413218,56.0,,11.0,graph,,A1A2X0T1XE8K89,3U5JL4WY5K9ZQWHNXJU0UYF726X4XX,4
"[6558, 7085, 8101, 8661, 9253, 9813]","['down', 'up', 'down', 'down', 'down', 'up']",,,static/json/pachinko_17.json,"['0_1', '1_2', '2_1', '3_2', '4_2', '5_3', '6_2']",0.0,[],,,,"{'2': 9, '6': 28, '1': -8}","[-1, 2, 3, 2, 18, 4]","[6558, 33, 515, 57, 99, 59]",28.0,0.0,,1424770,71.0,,12.0,graph,,A1A2X0T1XE8K89,3U5JL4WY5K9ZQWHNXJU0UYF726X4XX,4
"[19189, 19722, 20859, 23363, 23995, 24603]","['down', 'down', 'up', 'down', 'up', 'up']",,,static/json/pachinko_32.json,"['0_1', '1_2', '2_2', '3_2', '4_2', '5_2', '6_1']",3.0,"[28, 0]",static/json/pseudo_rewards_98.json,,,"{'2': 1, '6': 34, '1': -12}","[0, 1, 5, 0, 7, 6]","[19185, 32, 637, 1990, 133, 108]",19.0,28.0,,1451386,130.0,,13.0,graph,,A1A2X0T1XE8K89,3U5JL4WY5K9ZQWHNXJU0UYF726X4XX,4
"[2046, 2695, 3478, 5638, 6573, 7082]","['up', 'up', 'up', 'down', 'down', 'down']",,,static/json/pachinko_29.json,"['0_3', '1_3', '2_2', '3_2', '4_2', '5_3', '6_3']",0.0,[],,,,"{'2': 7, '6': 27, '1': -37}","[-2, -3, -2, -5, -16, -16]","[2046, 157, 291, 1665, 434, 6]",-44.0,0.0,,1460490,119.0,,14.0,graph,,A1A2X0T1XE8K89,3U5JL4WY5K9ZQWHNXJU0UYF726X4XX,4
"[6262, 6814, 7518, 8710, 9295, 9879]","['up', 'down', 'down', 'down', 'up', 'up']",,,static/json/pachinko_33.json,"['0_1', '1_1', '2_1', '3_2', '4_2', '5_2', '6_1']",0.0,[],,,,"{'2': 15, '6': 30, '1': -9}","[2, 0, -6, 4, 17, 10]","[6262, 41, 204, 695, 95, 95]",27.0,0.0,,1472091,135.0,,15.0,graph,,A1A2X0T1XE8K89,3U5JL4WY5K9ZQWHNXJU0UYF726X4XX,4
"[7057, 7633, 8226, 12465, 12976, 13520]","['down', 'down', 'down', 'up', 'up', 'down']",,,static/json/pachinko_36.json,"['0_0', '1_1', '2_1', '3_2', '4_1', '5_1', '6_1']",3.0,"[19, 0]",static/json/pseudo_rewards_110.json,,,"{'2': 12, '6': 27, '1': -11}","[-2, -2, -3, 4, -1, 16]","[7053, 79, 89, 3729, 16, 44]",12.0,19.0,,1487411,146.0,,16.0,graph,,A1A2X0T1XE8K89,3U5JL4WY5K9ZQWHNXJU0UYF726X4XX,4
"[3528, 6302, 14352, 14991, 15526, 16246]","['down', 'down', 'up', 'down', 'down', 'up']",,,static/json/pachinko_25.json,"['0_0', '1_1', '2_1', '3_1', '4_1', '5_2', '6_1']",0.0,[],,,,"{'2': 10, '6': 26, '1': -1}","[0, 6, 5, -2, -6, 23]","[3527, 2277, 7556, 137, 37, 226]",26.0,0.0,,1505515,103.0,,17.0,graph,,A1A2X0T1XE8K89,3U5JL4WY5K9ZQWHNXJU0UYF726X4XX,4
"[12809, 27699, 28246, 28871, 29487, 30127]","['down', 'down', 'down', 'down', 'down', 'up']",,,static/json/pachinko_22.json,"['0_0', '1_1', '2_1', '3_2', '4_2', '5_3', '6_2']",1.0,"[30, 31, 34, 25, 20, 0]",static/json/pseudo_rewards_66.json,,,"{'2': 10, '6': 30, '1': -10}","[0, -1, -3, 9, 5, 20]","[12805, 14383, 26, 120, 104, 135]",30.0,140.0,,1537443,88.0,,18.0,graph,,A1A2X0T1XE8K89,3U5JL4WY5K9ZQWHNXJU0UYF726X4XX,4
"[10368, 10938, 12248, 12841, 13384, 13903]","['down', 'up', 'up', 'down', 'up', 'up']",,,static/json/pachinko_39.json,"['0_2', '1_3', '2_2', '3_2', '4_2', '5_2', '6_1']",2.0,"[35, 37, 0]",static/json/pseudo_rewards_118.json,,,"{'2': 17, '6': 36, '1': -5}","[-2, 3, 0, -2, 10, 27]","[10365, 65, 793, 99, 39, 28]",36.0,72.0,,1553074,157.0,,19.0,graph,,A1A2X0T1XE8K89,3U5JL4WY5K9ZQWHNXJU0UYF726X4XX,4
"[5693, 6220, 6803, 7619, 8131, 8690]","['down', 'down', 'down', 'down', 'up', 'up']",,,static/json/pachinko_4.json,"['0_1', '1_2', '2_2', '3_3', '4_3', '5_3', '6_2']",3.0,"[36, 0]",static/json/pseudo_rewards_14.json,,,"{'2': 15, '6': 36, '1': -8}","[2, 0, -2, 8, 10, 18]","[5689, 20, 87, 305, 13, 57]",36.0,36.0,,1563890,18.0,,20.0,graph,,A1A2X0T1XE8K89,3U5JL4WY5K9ZQWHNXJU0UYF726X4XX,4
"[4159, 9800, 10319, 10831, 11361, 11912]","['up', 'down', 'up', 'up', 'down', 'down']",,,static/json/pachinko_7.json,"['0_3', '1_3', '2_3', '3_3', '4_2', '5_3', '6_3']",2.0,"[31, 24, 0]",static/json/pseudo_rewards_22.json,,,"{'2': 18, '6': 31, '1': -7}","[0, 0, 3, 4, 3, 21]","[4156, 5144, 21, 21, 18, 50]",31.0,55.0,,1577482,29.0,,21.0,graph,,A1A2X0T1XE8K89,3U5JL4WY5K9ZQWHNXJU0UYF726X4XX,4
"[9496, 10008, 10625, 13809, 14305, 14856]","['down', 'down', 'down', 'down', 'down', 'down']",,,static/json/pachinko_24.json,"['0_0', '1_1', '2_1', '3_2', '4_2', '5_3', '6_3']",3.0,"[41, 0]",static/json/pseudo_rewards_74.json,,,"{'2': 16, '6': 29, '1': -3}","[2, -4, -10, 2, 13, 26]","[9492, 12, 115, 2666, 6, 42]",29.0,41.0,,1594082,98.0,,22.0,graph,,A1A2X0T1XE8K89,3U5JL4WY5K9ZQWHNXJU0UYF726X4XX,4
"[2236, 4010, 5258, 10619, 11138, 11714]","['down', 'down', 'down', 'down', 'down', 'down']",,,static/json/pachinko_18.json,"['0_0', '1_1', '2_1', '3_2', '4_2', '5_3', '6_3']",1.0,"[37, 37, 36, 22, 21, 0]",static/json/pseudo_rewards_54.json,,,"{'2': 16, '6': 37, '1': -6}","[0, 0, 1, 14, 1, 21]","[2233, 1258, 739, 4859, 10, 66]",37.0,153.0,,1607690,72.0,,23.0,graph,,A1A2X0T1XE8K89,3U5JL4WY5K9ZQWHNXJU0UYF726X4XX,4
"[2233, 2743, 3335, 12337, 13247, 13855]","['down', 'down', 'down', 'up', 'down', 'up']",,,static/json/pachinko_20.json,"['0_0', '1_1', '2_1', '3_2', '4_1', '5_2', '6_1']",3.0,"[32, 0]",static/json/pseudo_rewards_62.json,,,"{'2': 13, '6': 36, '1': -4}","[0, -1, 5, 12, 7, 13]","[2230, 19, 93, 8497, 410, 119]",36.0,32.0,,1623666,82.0,,24.0,graph,,A1A2X0T1XE8K89,3U5JL4WY5K9ZQWHNXJU0UYF726X4XX,4
"[376216, 377198, 377759, 379054, 379582, 380126]","['up', 'up', 'up', 'down', 'up', 'down']",,,static/json/pachinko_0.json,"['0_2', '1_2', '2_1', '3_1', '4_1', '5_1', '6_1']",3.0,"[35, 0]",static/json/pseudo_rewards_2.json,,,"{'2': 23, '6': 38, '1': -1}","[0, -1, -1, 1, -1, 35]","[376212, 485, 63, 775, 35, 44]",33.0,35.0,,2005986,2.0,,25.0,graph,,A1A2X0T1XE8K89,3U5JL4WY5K9ZQWHNXJU0UYF726X4XX,4
"[1774, 2268, 2861, 5278, 5909, 6421]","['down', 'down', 'down', 'down', 'up', 'down']",,,static/json/pachinko_16.json,"['0_0', '1_1', '2_1', '3_2', '4_2', '5_2', '6_2']",3.0,"[31, 0]",static/json/pseudo_rewards_50.json,,,"{'2': 23, '6': 37, '1': -1}","[-2, 2, 6, -2, 23, 10]","[1770, 5, 80, 1911, 140, 18]",37.0,31.0,,2014218,66.0,,26.0,graph,,A1A2X0T1XE8K89,3U5JL4WY5K9ZQWHNXJU0UYF726X4XX,4
"[977, 2177, 3545, 5257, 5881, 6816]","['down', 'down', 'down', 'down', 'down', 'down']",,,static/json/pachinko_6.json,"['0_0', '1_1', '2_1', '3_2', '4_2', '5_3', '6_3']",1.0,"[34, 33, 32, 41, 21, 0]",static/json/pseudo_rewards_18.json,,,"{'2': 12, '6': 35, '1': -1}","[1, 1, 1, -9, 20, 21]","[974, 694, 862, 1213, 117, 433]",35.0,161.0,,2023187,24.0,,27.0,graph,,A1A2X0T1XE8K89,3U5JL4WY5K9ZQWHNXJU0UYF726X4XX,4
"[1308, 1851, 3411, 4635, 6051, 6579]","['down', 'down', 'down', 'up', 'up', 'down']",,,static/json/pachinko_3.json,"['0_0', '1_1', '2_1', '3_2', '4_1', '5_1', '6_1']",2.0,"[22, 24, 0]",static/json/pseudo_rewards_10.json,,,"{'2': 11, '6': 23, '1': -5}","[0, 1, -4, 2, 7, 17]","[1305, 37, 1058, 718, 909, 27]",23.0,46.0,,2031537,13.0,,28.0,graph,,A1A2X0T1XE8K89,3U5JL4WY5K9ZQWHNXJU0UYF726X4XX,4
"[1269, 2596, 3476, 4972, 8964, 9532]","['up', 'down', 'down', 'up', 'up', 'down']",,,static/json/pachinko_34.json,"['0_1', '1_1', '2_1', '3_2', '4_1', '5_1', '6_1']",1.0,"[36, 28, 18, 20, 0, 0]",static/json/pseudo_rewards_102.json,,,"{'2': 11, '6': 34, '1': -5}","[-2, 8, 10, -2, 20, 0]","[1266, 816, 373, 994, 3475, 62]",34.0,102.0,,2042842,136.0,,29.0,graph,,A1A2X0T1XE8K89,3U5JL4WY5K9ZQWHNXJU0UYF726X4XX,4
"[1503, 2031, 3927, 4446, 4983, 5535]","['down', 'down', 'up', 'down', 'up', 'up']",,,static/json/pachinko_23.json,"['0_0', '1_1', '2_1', '3_1', '4_1', '5_1', '6_0']",2.0,"[40, 28, 0]",static/json/pseudo_rewards_70.json,,,"{'2': 25, '6': 36, '1': -9}","[-3, -1, 6, 6, 6, 22]","[1500, 39, 1371, 20, 27, 56]",36.0,68.0,,2050209,93.0,,30.0,graph,,A1A2X0T1XE8K89,3U5JL4WY5K9ZQWHNXJU0UYF726X4XX,4
"[2504, 3049, 3663, 4280, 4824, 5368]","['down', 'down', 'down', 'down', 'up', 'up']",,,static/json/pachinko_12.json,"['0_1', '1_2', '2_2', '3_3', '4_3', '5_3', '6_2']",3.0,"[37, 0]",static/json/pseudo_rewards_38.json,,,"{'2': 18, '6': 34, '1': -3}","[0, -2, -1, 4, 13, 20]","[2500, 48, 109, 106, 54, 48]",34.0,37.0,,2057385,50.0,,31.0,graph,,A1A2X0T1XE8K89,3U5JL4WY5K9ZQWHNXJU0UYF726X4XX,4
"[1213, 2141, 3445, 4821, 8192, 8750]","['down', 'down', 'down', 'down', 'down', 'down']",,,static/json/pachinko_2.json,"['0_0', '1_1', '2_1', '3_2', '4_2', '5_3', '6_3']",1.0,"[39, 37, 28, 33, 16, 0]",static/json/pseudo_rewards_6.json,,,"{'2': 3, '6': 39, '1': -22}","[0, 2, 9, -5, 17, 16]","[1211, 409, 805, 870, 2865, 42]",39.0,153.0,,2067907,8.0,,32.0,graph,,A1A2X0T1XE8K89,3U5JL4WY5K9ZQWHNXJU0UYF726X4XX,4
"[1424, 1999, 2751, 4687, 5839, 6375]","['down', 'down', 'up', 'down', 'down', 'up']",,,static/json/pachinko_28.json,"['0_1', '1_2', '2_2', '3_2', '4_2', '5_3', '6_2']",3.0,"[25, 0]",static/json/pseudo_rewards_86.json,,,"{'2': 9, '6': 33, '1': -3}","[0, -7, 1, 2, 1, 22]","[1420, 72, 255, 1426, 656, 43]",19.0,25.0,,2076091,114.0,,33.0,graph,,A1A2X0T1XE8K89,3U5JL4WY5K9ZQWHNXJU0UYF726X4XX,4
"[896, 2423, 3647, 5183, 6191, 6775]","['down', 'down', 'up', 'up', 'down', 'down']",,,static/json/pachinko_10.json,"['0_1', '1_2', '2_2', '3_2', '4_1', '5_2', '6_2']",1.0,"[39, 40, 36, 36, 8, 0]",static/json/pseudo_rewards_30.json,,,"{'2': 27, '6': 39, '1': -15}","[0, -1, 4, 0, 28, 8]","[892, 1030, 720, 1031, 508, 70]",39.0,159.0,,2084610,40.0,,34.0,graph,,A1A2X0T1XE8K89,3U5JL4WY5K9ZQWHNXJU0UYF726X4XX,4
"[11446, 12045, 13876, 15837, 16444, 17157]","['up', 'up', 'up', 'up', 'down', 'down']",,,static/json/pachinko_15.json,"['0_2', '1_2', '2_1', '3_1', '4_0', '5_1', '6_1']",2.0,"[31, 23, 0]",static/json/pseudo_rewards_46.json,,,"{'2': 8, '6': 35, '1': -4}","[1, -2, 0, 8, 4, 19]","[11443, 104, 1326, 1458, 101, 209]",30.0,54.0,,2103573,61.0,,35.0,graph,,A1A2X0T1XE8K89,3U5JL4WY5K9ZQWHNXJU0UYF726X4XX,4
"[2221, 2765, 3957, 4565, 5165, 5677]","['down', 'down', 'down', 'down', 'up', 'up']",,,static/json/pachinko_11.json,"['0_1', '1_2', '2_2', '3_3', '4_3', '5_3', '6_2']",2.0,"[30, 27, 0]",static/json/pseudo_rewards_34.json,,,"{'2': 7, '6': 30, '1': -21}","[1, -1, 9, -6, 2, 25]","[2211, 40, 673, 106, 98, 12]",30.0,57.0,,2110986,45.0,,36.0,graph,,A1A2X0T1XE8K89,3U5JL4WY5K9ZQWHNXJU0UYF726X4XX,4
"[1084, 1667, 3059, 3643, 5171, 5692]","['down', 'down', 'down', 'down', 'down', 'up']",,,static/json/pachinko_27.json,"['0_0', '1_1', '2_1', '3_2', '4_2', '5_3', '6_2']",2.0,"[33, 20, 0]",static/json/pseudo_rewards_82.json,,,"{'2': 13, '6': 33, '1': -4}","[0, 0, 1, 12, 16, 4]","[1080, 94, 901, 85, 1015, 30]",33.0,53.0,,2118394,109.0,,37.0,graph,,A1A2X0T1XE8K89,3U5JL4WY5K9ZQWHNXJU0UYF726X4XX,4
"[1005, 1556, 7719, 8301, 8852, 9388]","['down', 'down', 'up', 'up', 'down', 'up']",,,static/json/pachinko_21.json,"['0_0', '1_1', '2_1', '3_1', '4_0', '5_1', '6_0']",0.0,[],,,,"{'2': 14, '6': 36, '1': -16}","[1, 1, 2, -19, 6, 35]","[1005, 50, 5660, 85, 54, 39]",26.0,0.0,,2129484,87.0,,38.0,graph,,A1A2X0T1XE8K89,3U5JL4WY5K9ZQWHNXJU0UYF726X4XX,4
"[1014, 1574, 4278, 6478, 6989, 7558]","['down', 'down', 'down', 'up', 'up', 'down']",,,static/json/pachinko_35.json,"['0_0', '1_1', '2_1', '3_2', '4_1', '5_1', '6_1']",2.0,"[23, 12, 0]",static/json/pseudo_rewards_106.json,,,"{'2': 14, '6': 29, '1': -8}","[0, 6, 7, 4, 9, 3]","[1011, 59, 2197, 1707, 4, 51]",29.0,35.0,,2139322,141.0,,39.0,graph,,A1A2X0T1XE8K89,3U5JL4WY5K9ZQWHNXJU0UYF726X4XX,4
"[33402, 35105, 36245, 37629, 40070, 41785]","['down', 'down', 'down', 'down', 'up', 'up']",,,static/json/pachinko_12.json,"['0_1', '1_2', '2_2', '3_3', '4_3', '5_3', '6_2']",3.0,"[37, 0]",static/json/pseudo_rewards_38.json,,,"{'2': 18, '6': 34, '1': -3}","[0, -2, -1, 4, 13, 20]","[33385, 1193, 647, 864, 1936, 1216]",34.0,37.0,,198589,50.0,,0.0,graph,,A1C0H8G0YI15MN,3NGI5ARFTT5DPOIDOA1H2NM1ONEP1H,5
"[45531, 46586, 47648, 60994, 61824, 63011]","['down', 'down', 'up', 'down', 'down', 'up']",,,static/json/pachinko_25.json,"['0_0', '1_1', '2_1', '3_1', '4_1', '5_2', '6_1']",0.0,[],,,,"{'2': 10, '6': 26, '1': -1}","[0, 6, 5, -2, -6, 23]","[45531, 535, 560, 12853, 333, 686]",26.0,0.0,,265384,103.0,,1.0,graph,,A1C0H8G0YI15MN,3NGI5ARFTT5DPOIDOA1H2NM1ONEP1H,5
"[15758, 16695, 23962, 25110, 29367, 30206]","['down', 'up', 'down', 'down', 'up', 'down']",,,static/json/pachinko_19.json,"['0_0', '1_1', '2_0', '3_1', '4_1', '5_1', '6_1']",2.0,"[38, 32, 0]",static/json/pseudo_rewards_58.json,,,"{'2': 23, '6': 36, '1': -2}","[0, -2, 3, 3, 4, 28]","[15735, 436, 6751, 641, 3744, 344]",36.0,70.0,,299930,77.0,,2.0,graph,,A1C0H8G0YI15MN,3NGI5ARFTT5DPOIDOA1H2NM1ONEP1H,5
"[9913, 15604, 20728, 27981, 38202, 40549]","['down', 'down', 'down', 'down', 'down', 'up']",,,static/json/pachinko_2.json,"['0_0', '1_1', '2_1', '3_2', '4_2', '5_3', '6_2']",1.0,"[39, 37, 28, 33, 16, 0]",static/json/pseudo_rewards_6.json,,,"{'2': 3, '6': 39, '1': -22}","[0, 2, 9, -5, 17, 3]","[9898, 5166, 4602, 6733, 9712, 1826]",26.0,153.0,,347892,8.0,,3.0,graph,,A1C0H8G0YI15MN,3NGI5ARFTT5DPOIDOA1H2NM1ONEP1H,5
"[15255, 16416, 17308, 18188, 19058, 19991]","['down', 'down', 'up', 'down', 'up', 'down']",,,static/json/pachinko_5.json,"['0_0', '1_1', '2_1', '3_1', '4_1', '5_1', '6_1']",0.0,[],,,,"{'2': 11, '6': 31, '1': -29}","[0, 2, 2, 4, 1, 22]","[15255, 660, 399, 379, 364, 429]",31.0,0.0,,371588,23.0,,4.0,graph,,A1C0H8G0YI15MN,3NGI5ARFTT5DPOIDOA1H2NM1ONEP1H,5
"[12165, 15308, 19476, 22243, 33651, 38126]","['up', 'down', 'up', 'down', 'up', 'down']",,,static/json/pachinko_34.json,"['0_1', '1_1', '2_1', '3_1', '4_1', '5_1', '6_1']",1.0,"[36, 28, 21, 20, 0, 0]",static/json/pseudo_rewards_102.json,,,"{'2': 11, '6': 34, '1': -5}","[-2, 8, -3, 1, 20, 0]","[12154, 2640, 3655, 2244, 10901, 3946]",24.0,105.0,,415728,136.0,,5.0,graph,,A1C0H8G0YI15MN,3NGI5ARFTT5DPOIDOA1H2NM1ONEP1H,5
"[22282, 22968, 23754, 26242, 29495, 30352]","['down', 'down', 'down', 'down', 'down', 'down']",,,static/json/pachinko_24.json,"['0_0', '1_1', '2_1', '3_2', '4_2', '5_3', '6_3']",3.0,"[41, 0]",static/json/pseudo_rewards_74.json,,,"{'2': 16, '6': 29, '1': -3}","[2, -4, -10, 2, 13, 26]","[22260, 183, 286, 1978, 2755, 358]",29.0,41.0,,450988,98.0,,6.0,graph,,A1C0H8G0YI15MN,3NGI5ARFTT5DPOIDOA1H2NM1ONEP1H,5
"[39502, 40143, 40848, 41580, 42396, 43880]","['up', 'up', 'up', 'up', 'down', 'up']",,,static/json/pachinko_13.json,"['0_2', '1_2', '2_1', '3_1', '4_0', '5_1', '6_0']",0.0,[],,,,"{'2': 7, '6': 21, '1': -4}","[0, -5, -9, -8, 28, 15]","[39501, 129, 215, 229, 313, 995]",21.0,0.0,,498363,55.0,,7.0,graph,,A1C0H8G0YI15MN,3NGI5ARFTT5DPOIDOA1H2NM1ONEP1H,5
"[18460, 22242, 23173, 24089, 24857, 25791]","['down', 'up', 'up', 'down', 'down', 'up']",,,static/json/pachinko_21.json,"['0_0', '1_1', '2_0', '3_0', '4_0', '5_1', '6_0']",0.0,[],,,,"{'2': 14, '6': 36, '1': -16}","[1, -2, -4, 0, 6, 35]","[18460, 3273, 431, 413, 280, 428]",36.0,0.0,,528082,87.0,,8.0,graph,,A1C0H8G0YI15MN,3NGI5ARFTT5DPOIDOA1H2NM1ONEP1H,5
"[21962, 22830, 29687, 30627, 31904, 32603]","['down', 'down', 'down', 'down', 'up', 'up']",,,static/json/pachinko_11.json,"['0_1', '1_2', '2_2', '3_3', '4_3', '5_3', '6_2']",2.0,"[30, 27, 0]",static/json/pseudo_rewards_34.json,,,"{'2': 7, '6': 30, '1': -21}","[1, -1, 9, -6, 2, 25]","[21948, 351, 6345, 439, 771, 194]",30.0,57.0,,564325,45.0,,9.0,graph,,A1C0H8G0YI15MN,3NGI5ARFTT5DPOIDOA1H2NM1ONEP1H,5
"[10215, 11004, 13953, 25639, 26291, 27011]","['down', 'down', 'up', 'up', 'up', 'up']",,,static/json/pachinko_32.json,"['0_1', '1_2', '2_2', '3_2', '4_1', '5_1', '6_0']",3.0,"[28, 0]",static/json/pseudo_rewards_98.json,,,"{'2': 1, '6': 34, '1': -12}","[0, 1, 5, -3, 23, 8]","[10194, 276, 2454, 11176, 140, 226]",34.0,28.0,,594699,130.0,,10.0,graph,,A1C0H8G0YI15MN,3NGI5ARFTT5DPOIDOA1H2NM1ONEP1H,5
"[49859, 50511, 51207, 52481, 53509, 54324]","['up', 'up', 'up', 'down', 'up', 'up']",,,static/json/pachinko_37.json,"['0_2', '1_2', '2_1', '3_1', '4_1', '5_1', '6_0']",0.0,[],,,,"{'2': 10, '6': 21, '1': -14}","[0, 0, 0, 19, -11, 12]","[49859, 153, 199, 770, 531, 312]",20.0,0.0,,652389,151.0,,11.0,graph,,A1C0H8G0YI15MN,3NGI5ARFTT5DPOIDOA1H2NM1ONEP1H,5
"[9846, 10667, 11418, 16860, 17578, 18315]","['down', 'down', 'down', 'down', 'up', 'up']",,,static/json/pachinko_4.json,"['0_1', '1_2', '2_2', '3_3', '4_3', '5_3', '6_2']",3.0,"[36, 0]",static/json/pseudo_rewards_14.json,,,"{'2': 15, '6': 36, '1': -8}","[2, 0, -2, 8, 10, 18]","[9827, 303, 253, 4931, 223, 240]",36.0,36.0,,674260,18.0,,12.0,graph,,A1C0H8G0YI15MN,3NGI5ARFTT5DPOIDOA1H2NM1ONEP1H,5
"[9940, 10747, 16726, 18904, 22806, 23582]","['down', 'down', 'down', 'up', 'up', 'down']",,,static/json/pachinko_35.json,"['0_0', '1_1', '2_1', '3_2', '4_1', '5_1', '6_1']",2.0,"[23, 12, 0]",static/json/pseudo_rewards_106.json,,,"{'2': 14, '6': 29, '1': -8}","[0, 6, 7, 4, 9, 3]","[9925, 294, 5477, 1674, 3391, 276]",29.0,35.0,,701379,141.0,,13.0,graph,,A1C0H8G0YI15MN,3NGI5ARFTT5DPOIDOA1H2NM1ONEP1H,5
"[14032, 27004, 27919, 29464, 30428, 31350]","['up', 'down', 'down', 'down', 'up', 'up']",,,static/json/pachinko_30.json,"['0_0', '1_0', '2_0', '3_1', '4_1', '5_1', '6_0']",1.0,"[23, 23, 16, 19, 9, 0]",static/json/pseudo_rewards_90.json,,,"{'2': 1, '6': 22, '1': -17}","[-1, 0, 7, -3, 10, 9]","[14013, 12465, 400, 1038, 458, 410]",22.0,90.0,,736014,120.0,,14.0,graph,,A1C0H8G0YI15MN,3NGI5ARFTT5DPOIDOA1H2NM1ONEP1H,5
"[6362, 9376, 12247, 14791, 21182, 22175]","['down', 'down', 'down', 'down', 'down', 'up']",,,static/json/pachinko_14.json,"['0_0', '1_1', '2_1', '3_2', '4_2', '5_3', '6_2']",1.0,"[21, 24, 18, 16, 18, 0]",static/json/pseudo_rewards_42.json,,,"{'2': 10, '6': 21, '1': -2}","[0, -4, 6, 2, -2, 18]","[6345, 2494, 2359, 2031, 5880, 470]",20.0,97.0,,761711,56.0,,15.0,graph,,A1C0H8G0YI15MN,3NGI5ARFTT5DPOIDOA1H2NM1ONEP1H,5
"[7386, 8394, 14610, 15486, 18944, 19637]","['down', 'up', 'up', 'down', 'up', 'up']",,,static/json/pachinko_39.json,"['0_2', '1_3', '2_2', '3_2', '4_2', '5_2', '6_1']",2.0,"[35, 37, 0]",static/json/pseudo_rewards_118.json,,,"{'2': 17, '6': 36, '1': -5}","[-2, 3, 0, -2, 10, 27]","[7364, 499, 5698, 381, 2941, 193]",36.0,72.0,,784429,157.0,,16.0,graph,,A1C0H8G0YI15MN,3NGI5ARFTT5DPOIDOA1H2NM1ONEP1H,5
"[15838, 29874, 30728, 37162, 37974, 38775]","['up', 'up', 'up', 'up', 'down', 'down']",,,static/json/pachinko_1.json,"['0_3', '1_3', '2_2', '3_2', '4_1', '5_2', '6_2']",0.0,[],,,,"{'2': 10, '6': 24, '1': -12}","[4, -1, 4, -2, 9, 10]","[15837, 13533, 350, 5935, 305, 304]",24.0,0.0,,826757,7.0,,17.0,graph,,A1C0H8G0YI15MN,3NGI5ARFTT5DPOIDOA1H2NM1ONEP1H,5
"[12512, 13504, 16443, 17598, 19590, 20546]","['down', 'down', 'up', 'down', 'up', 'down']",,,static/json/pachinko_15.json,"['0_2', '1_3', '2_3', '3_3', '4_3', '5_3', '6_3']",2.0,"[32, 26, 0]",static/json/pseudo_rewards_46.json,,,"{'2': 8, '6': 35, '1': -4}","[-1, 4, 6, 0, 19, 7]","[12499, 500, 2424, 655, 1486, 465]",35.0,58.0,,850275,61.0,,18.0,graph,,A1C0H8G0YI15MN,3NGI5ARFTT5DPOIDOA1H2NM1ONEP1H,5
"[4523, 8005, 10223, 13285, 15562, 16720]","['down', 'down', 'down', 'down', 'down', 'down']",,,static/json/pachinko_18.json,"['0_0', '1_1', '2_1', '3_2', '4_2', '5_3', '6_3']",1.0,"[37, 37, 36, 22, 21, 0]",static/json/pseudo_rewards_54.json,,,"{'2': 16, '6': 37, '1': -6}","[0, 0, 1, 14, 1, 21]","[4506, 2960, 1714, 2555, 1763, 650]",37.0,153.0,,870097,72.0,,19.0,graph,,A1C0H8G0YI15MN,3NGI5ARFTT5DPOIDOA1H2NM1ONEP1H,5
"[3959, 7250, 10694, 13452, 14886, 16957]","['down', 'down', 'down', 'down', 'up', 'up']",,,static/json/pachinko_26.json,"['0_1', '1_2', '2_2', '3_3', '4_3', '5_3', '6_2']",1.0,"[28, 28, 28, 31, 7, 0]",static/json/pseudo_rewards_78.json,,,"{'2': 4, '6': 28, '1': -8}","[0, 0, 0, -3, 24, 7]","[3935, 2766, 2927, 2243, 923, 1562]",28.0,122.0,,890085,104.0,,20.0,graph,,A1C0H8G0YI15MN,3NGI5ARFTT5DPOIDOA1H2NM1ONEP1H,5
"[11037, 11874, 13633, 18105, 18799, 19490]","['up', 'down', 'up', 'down', 'down', 'down']",,,static/json/pachinko_36.json,"['0_0', '1_0', '2_0', '3_0', '4_0', '5_1', '6_1']",3.0,"[32, 0]",static/json/pseudo_rewards_110.json,,,"{'2': 12, '6': 27, '1': -11}","[-3, -4, 2, 16, 0, 16]","[11014, 323, 1262, 3953, 188, 193]",27.0,32.0,,912427,146.0,,21.0,graph,,A1C0H8G0YI15MN,3NGI5ARFTT5DPOIDOA1H2NM1ONEP1H,5
"[15773, 16334, 17175, 18037, 18829, 20147]","['down', 'down', 'down', 'down', 'up', 'up']",,,static/json/pachinko_9.json,"['0_1', '1_2', '2_2', '3_3', '4_3', '5_3', '6_2']",0.0,[],,,,"{'2': 3, '6': 27, '1': -15}","[-1, 0, 0, 10, 17, 1]","[15772, 60, 353, 361, 304, 821]",27.0,0.0,,935819,39.0,,22.0,graph,,A1C0H8G0YI15MN,3NGI5ARFTT5DPOIDOA1H2NM1ONEP1H,5
"[3673, 4526, 6888, 7609, 10114, 10762]","['down', 'down', 'down', 'down', 'down', 'up']",,,static/json/pachinko_27.json,"['0_0', '1_1', '2_1', '3_2', '4_2', '5_3', '6_2']",2.0,"[33, 20, 0]",static/json/pseudo_rewards_82.json,,,"{'2': 13, '6': 33, '1': -4}","[0, 0, 1, 12, 16, 4]","[3654, 342, 1860, 222, 1998, 153]",33.0,53.0,,948822,109.0,,23.0,graph,,A1C0H8G0YI15MN,3NGI5ARFTT5DPOIDOA1H2NM1ONEP1H,5
"[10402, 11081, 11794, 16466, 17136, 17876]","['up', 'up', 'up', 'down', 'down', 'down']",,,static/json/pachinko_8.json,"['0_2', '1_2', '2_1', '3_1', '4_1', '5_2', '6_2']",3.0,"[25, 0]",static/json/pseudo_rewards_26.json,,,"{'2': 8, '6': 26, '1': -20}","[-1, 1, 1, -4, 20, 9]","[10385, 176, 220, 4165, 173, 244]",26.0,25.0,,969908,34.0,,24.0,graph,,A1C0H8G0YI15MN,3NGI5ARFTT5DPOIDOA1H2NM1ONEP1H,5
"[4194, 5385, 8907, 9578, 14700, 15361]","['up', 'down', 'up', 'up', 'down', 'down']",,,static/json/pachinko_7.json,"['0_3', '1_3', '2_3', '3_3', '4_2', '5_3', '6_3']",2.0,"[31, 24, 0]",static/json/pseudo_rewards_22.json,,,"{'2': 18, '6': 31, '1': -7}","[0, 0, 3, 4, 3, 21]","[4180, 696, 3022, 164, 4611, 156]",31.0,55.0,,988348,29.0,,25.0,graph,,A1C0H8G0YI15MN,3NGI5ARFTT5DPOIDOA1H2NM1ONEP1H,5
"[5020, 8890, 13939, 16730, 18239, 19070]","['up', 'up', 'up', 'up', 'down', 'down']",,,static/json/pachinko_38.json,"['0_2', '1_2', '2_1', '3_1', '4_0', '5_1', '6_1']",1.0,"[30, 33, 40, 25, 18, 0]",static/json/pseudo_rewards_114.json,,,"{'2': 16, '6': 31, '1': -15}","[1, -3, -7, 15, 7, 18]","[5004, 3355, 4537, 2266, 991, 316]",31.0,146.0,,1010351,152.0,,26.0,graph,,A1C0H8G0YI15MN,3NGI5ARFTT5DPOIDOA1H2NM1ONEP1H,5
"[7227, 7791, 8475, 21659, 22591, 23376]","['down', 'down', 'down', 'up', 'down', 'up']",,,static/json/pachinko_20.json,"['0_0', '1_1', '2_1', '3_2', '4_1', '5_2', '6_1']",3.0,"[32, 0]",static/json/pseudo_rewards_62.json,,,"{'2': 13, '6': 36, '1': -4}","[0, -1, 5, 12, 7, 13]","[7213, 58, 190, 12679, 436, 289]",36.0,32.0,,1037215,82.0,,27.0,graph,,A1C0H8G0YI15MN,3NGI5ARFTT5DPOIDOA1H2NM1ONEP1H,5
"[9309, 10191, 20334, 22493, 23298, 24011]","['down', 'up', 'up', 'up', 'up', 'down']",,,static/json/pachinko_0.json,"['0_2', '1_3', '2_2', '3_2', '4_1', '5_1', '6_1']",3.0,"[26, 0]",static/json/pseudo_rewards_2.json,,,"{'2': 23, '6': 38, '1': -1}","[1, 3, 1, -8, -1, 35]","[9298, 361, 9637, 1634, 302, 214]",31.0,26.0,,1064799,2.0,,28.0,graph,,A1C0H8G0YI15MN,3NGI5ARFTT5DPOIDOA1H2NM1ONEP1H,5
"[3662, 4348, 10270, 10981, 13806, 14438]","['down', 'down', 'down', 'up', 'up', 'down']",,,static/json/pachinko_3.json,"['0_0', '1_1', '2_1', '3_2', '4_1', '5_1', '6_1']",2.0,"[22, 24, 0]",static/json/pseudo_rewards_10.json,,,"{'2': 11, '6': 23, '1': -5}","[0, 1, -4, 2, 7, 17]","[3650, 191, 5416, 213, 2311, 132]",23.0,46.0,,1082258,13.0,,29.0,graph,,A1C0H8G0YI15MN,3NGI5ARFTT5DPOIDOA1H2NM1ONEP1H,5
"[5752, 6451, 7189, 13370, 14072, 14862]","['down', 'down', 'down', 'down', 'up', 'down']",,,static/json/pachinko_16.json,"['0_0', '1_1', '2_1', '3_2', '4_2', '5_2', '6_2']",3.0,"[31, 0]",static/json/pseudo_rewards_50.json,,,"{'2': 23, '6': 37, '1': -1}","[-2, 2, 6, -2, 23, 10]","[5738, 203, 240, 5670, 198, 286]",37.0,31.0,,1100496,66.0,,30.0,graph,,A1C0H8G0YI15MN,3NGI5ARFTT5DPOIDOA1H2NM1ONEP1H,5
"[3146, 5222, 7524, 10095, 12089, 12845]","['down', 'down', 'down', 'down', 'down', 'up']",,,static/json/pachinko_22.json,"['0_0', '1_1', '2_1', '3_2', '4_2', '5_3', '6_2']",1.0,"[30, 31, 34, 25, 20, 0]",static/json/pseudo_rewards_66.json,,,"{'2': 10, '6': 30, '1': -10}","[0, -1, -3, 9, 5, 20]","[3129, 1550, 1790, 2061, 1480, 251]",30.0,140.0,,1115777,88.0,,31.0,graph,,A1C0H8G0YI15MN,3NGI5ARFTT5DPOIDOA1H2NM1ONEP1H,5
"[3629, 5587, 7326, 9398, 10679, 11436]","['down', 'down', 'down', 'down', 'down', 'down']",,,static/json/pachinko_6.json,"['0_0', '1_1', '2_1', '3_2', '4_2', '5_3', '6_3']",1.0,"[34, 33, 32, 41, 21, 0]",static/json/pseudo_rewards_18.json,,,"{'2': 12, '6': 35, '1': -1}","[1, 1, 1, -9, 20, 21]","[3609, 1439, 1228, 1561, 775, 245]",35.0,161.0,,1129716,24.0,,32.0,graph,,A1C0H8G0YI15MN,3NGI5ARFTT5DPOIDOA1H2NM1ONEP1H,5
"[9021, 30351, 31118, 38478, 40247, 40974]","['up', 'down', 'up', 'down', 'up', 'up']",,,static/json/pachinko_29.json,"['0_3', '1_3', '2_3', '3_3', '4_3', '5_3', '6_2']",0.0,[],,,,"{'2': 7, '6': 27, '1': -37}","[-2, -6, 3, -5, 12, 25]","[9021, 20819, 256, 6865, 1257, 231]",27.0,0.0,,1174163,119.0,,33.0,graph,,A1C0H8G0YI15MN,3NGI5ARFTT5DPOIDOA1H2NM1ONEP1H,5
"[5603, 6311, 10849, 11658, 14382, 15048]","['down', 'down', 'up', 'down', 'up', 'up']",,,static/json/pachinko_23.json,"['0_0', '1_1', '2_1', '3_1', '4_1', '5_1', '6_0']",2.0,"[40, 28, 0]",static/json/pseudo_rewards_70.json,,,"{'2': 25, '6': 36, '1': -9}","[-3, -1, 6, 6, 6, 22]","[5589, 208, 4032, 298, 2210, 168]",36.0,68.0,,1191934,93.0,,34.0,graph,,A1C0H8G0YI15MN,3NGI5ARFTT5DPOIDOA1H2NM1ONEP1H,5
"[12171, 12978, 13815, 19650, 20311, 21002]","['down', 'up', 'down', 'down', 'down', 'up']",,,static/json/pachinko_28.json,"['0_1', '1_2', '2_1', '3_2', '4_2', '5_3', '6_2']",3.0,"[25, 0]",static/json/pseudo_rewards_86.json,,,"{'2': 9, '6': 33, '1': -3}","[0, 8, 0, 2, 1, 22]","[12154, 305, 341, 5322, 162, 201]",33.0,25.0,,1216156,114.0,,35.0,graph,,A1C0H8G0YI15MN,3NGI5ARFTT5DPOIDOA1H2NM1ONEP1H,5
"[4477, 7926, 11482, 13922, 16360, 17056]","['down', 'down', 'up', 'up', 'down', 'down']",,,static/json/pachinko_10.json,"['0_1', '1_2', '2_2', '3_2', '4_1', '5_2', '6_2']",1.0,"[39, 40, 36, 36, 8, 0]",static/json/pseudo_rewards_30.json,,,"{'2': 27, '6': 39, '1': -15}","[0, -1, 4, 0, 28, 8]","[4462, 2936, 3040, 1926, 1927, 187]",39.0,159.0,,1236215,40.0,,36.0,graph,,A1C0H8G0YI15MN,3NGI5ARFTT5DPOIDOA1H2NM1ONEP1H,5
"[5267, 6004, 10293, 11046, 12312, 13043]","['down', 'down', 'up', 'up', 'down', 'down']",,,static/json/pachinko_31.json,"['0_1', '1_2', '2_2', '3_2', '4_1', '5_2', '6_2']",2.0,"[22, 9, 0]",static/json/pseudo_rewards_94.json,,,"{'2': 9, '6': 23, '1': -3}","[1, 0, 6, 7, 7, 2]","[5238, 227, 3786, 237, 766, 239]",23.0,31.0,,1252021,125.0,,37.0,graph,,A1C0H8G0YI15MN,3NGI5ARFTT5DPOIDOA1H2NM1ONEP1H,5
"[16292, 17113, 17877, 18590, 19295, 20079]","['down', 'up', 'down', 'down', 'down', 'up']",,,static/json/pachinko_17.json,"['0_1', '1_2', '2_1', '3_2', '4_2', '5_3', '6_2']",0.0,[],,,,"{'2': 9, '6': 28, '1': -8}","[-1, 2, 3, 2, 18, 4]","[16292, 320, 268, 211, 201, 282]",28.0,0.0,,1275467,71.0,,38.0,graph,,A1C0H8G0YI15MN,3NGI5ARFTT5DPOIDOA1H2NM1ONEP1H,5
"[28850, 29363, 29966, 30946, 31650, 32390]","['down', 'down', 'down', 'up', 'up', 'up']",,,static/json/pachinko_33.json,"['0_1', '1_2', '2_2', '3_3', '4_2', '5_2', '6_1']",0.0,[],,,,"{'2': 15, '6': 30, '1': -9}","[1, 0, 0, 2, 17, 10]","[28849, 11, 96, 476, 214, 234]",30.0,0.0,,1311226,135.0,,39.0,graph,,A1C0H8G0YI15MN,3NGI5ARFTT5DPOIDOA1H2NM1ONEP1H,5
"[7512, 23315, 24135, 25180, 25860, 26520]","['up', 'up', 'up', 'up', 'down', 'down']",,,static/json/pachinko_38.json,"['0_2', '1_2', '2_1', '3_1', '4_0', '5_1', '6_1']",1.0,"[30, 33, 40, 25, 18, 0]",static/json/pseudo_rewards_114.json,,,"{'2': 16, '6': 31, '1': -15}","[1, -3, -7, 15, 7, 18]","[7489, 15257, 275, 504, 144, 128]",31.0,146.0,,151235,152.0,,0.0,graph,,A1DJNUJZN8FE7N,3VE8AYVF8MXJ9BD49SER53V50OMF8F,6
"[5823, 7979, 22244, 22795, 23572, 24116]","['up', 'down', 'down', 'down', 'up', 'up']",,,static/json/pachinko_30.json,"['0_0', '1_0', '2_0', '3_1', '4_1', '5_1', '6_0']",1.0,"[23, 23, 16, 19, 9, 0]",static/json/pseudo_rewards_90.json,,,"{'2': 1, '6': 22, '1': -17}","[-1, 0, 7, -3, 10, 9]","[5806, 1620, 13732, 15, 238, 14]",22.0,90.0,,179409,120.0,,1.0,graph,,A1DJNUJZN8FE7N,3VE8AYVF8MXJ9BD49SER53V50OMF8F,6
"[21859, 22930, 23652, 35174, 39279, 40586]","['down', 'down', 'down', 'down', 'down', 'down']",,,static/json/pachinko_24.json,"['0_0', '1_1', '2_1', '3_2', '4_2', '5_3', '6_3']",3.0,"[41, 0]",static/json/pseudo_rewards_74.json,,,"{'2': 16, '6': 29, '1': -3}","[2, -4, -10, 2, 13, 26]","[21843, 552, 202, 10994, 3575, 784]",29.0,41.0,,223834,98.0,,2.0,graph,,A1DJNUJZN8FE7N,3VE8AYVF8MXJ9BD49SER53V50OMF8F,6
"[3547, 4328, 11038, 11649, 13095, 14914]","['down', 'down', 'down', 'up', 'up', 'down']",,,static/json/pachinko_35.json,"['0_0', '1_1', '2_1', '3_2', '4_1', '5_1', '6_1']",2.0,"[23, 12, 0]",static/json/pseudo_rewards_106.json,,,"{'2': 14, '6': 29, '1': -8}","[0, 6, 7, 4, 9, 3]","[3531, 247, 6175, 83, 910, 1301]",29.0,35.0,,241568,141.0,,3.0,graph,,A1DJNUJZN8FE7N,3VE8AYVF8MXJ9BD49SER53V50OMF8F,6
"[6413, 7465, 8179, 8892, 9665, 10379]","['down', 'down', 'down', 'up', 'down', 'up']",,,static/json/pachinko_20.json,"['0_0', '1_1', '2_1', '3_2', '4_1', '5_2', '6_1']",3.0,"[32, 0]",static/json/pseudo_rewards_62.json,,,"{'2': 13, '6': 36, '1': -4}","[0, -1, 5, 12, 7, 13]","[6397, 539, 189, 172, 257, 203]",36.0,32.0,,255737,82.0,,4.0,graph,,A1DJNUJZN8FE7N,3VE8AYVF8MXJ9BD49SER53V50OMF8F,6
"[11472, 12148, 12838, 13573, 15798, 16531]","['down', 'up', 'down', 'down', 'down', 'up']",,,static/json/pachinko_28.json,"['0_1', '1_2', '2_1', '3_2', '4_2', '5_3', '6_2']",3.0,"[25, 0]",static/json/pseudo_rewards_86.json,,,"{'2': 9, '6': 33, '1': -3}","[0, 8, 0, 2, 1, 22]","[11456, 142, 166, 192, 1704, 218]",33.0,25.0,,275571,114.0,,5.0,graph,,A1DJNUJZN8FE7N,3VE8AYVF8MXJ9BD49SER53V50OMF8F,6
"[13840, 14466, 15119, 16569, 17511, 19296]","['down', 'down', 'up', 'up', 'up', 'up']",,,static/json/pachinko_32.json,"['0_1', '1_2', '2_2', '3_2', '4_1', '5_1', '6_0']",3.0,"[28, 0]",static/json/pseudo_rewards_98.json,,,"{'2': 1, '6': 34, '1': -12}","[0, 1, 5, -3, 23, 8]","[13824, 106, 140, 931, 436, 1267]",34.0,28.0,,297652,130.0,,6.0,graph,,A1DJNUJZN8FE7N,3VE8AYVF8MXJ9BD49SER53V50OMF8F,6
"[7247, 9741, 17573, 19384, 21346, 22281]","['down', 'up', 'down', 'up', 'up', 'up']",,,static/json/pachinko_39.json,"['0_2', '1_3', '2_2', '3_3', '4_2', '5_2', '6_1']",2.0,"[35, 37, 0]",static/json/pseudo_rewards_118.json,,,"{'2': 17, '6': 36, '1': -5}","[-2, 3, 9, -12, 10, 27]","[7230, 1950, 7309, 1299, 1434, 408]",35.0,72.0,,326925,157.0,,7.0,graph,,A1DJNUJZN8FE7N,3VE8AYVF8MXJ9BD49SER53V50OMF8F,6
"[16984, 17903, 18459, 19946, 20477, 21433]","['down', 'down', 'down', 'up', 'up', 'up']",,,static/json/pachinko_33.json,"['0_1', '1_2', '2_2', '3_3', '4_2', '5_2', '6_1']",0.0,[],,,,"{'2': 15, '6': 30, '1': -9}","[1, 0, 0, 2, 17, 10]","[16983, 403, 43, 963, 9, 434]",30.0,0.0,,356050,135.0,,8.0,graph,,A1DJNUJZN8FE7N,3VE8AYVF8MXJ9BD49SER53V50OMF8F,6
"[8604, 9684, 16990, 17713, 23424, 24402]","['up', 'down', 'down', 'up', 'up', 'down']",,,static/json/pachinko_34.json,"['0_1', '1_1', '2_1', '3_2', '4_1', '5_1', '6_1']",1.0,"[36, 28, 18, 20, 0, 0]",static/json/pseudo_rewards_102.json,,,"{'2': 11, '6': 34, '1': -5}","[-2, 8, 10, -2, 20, 0]","[8584, 535, 6774, 191, 5166, 440]",34.0,102.0,,383281,136.0,,9.0,graph,,A1DJNUJZN8FE7N,3VE8AYVF8MXJ9BD49SER53V50OMF8F,6
"[10891, 12126, 17497, 18109, 18762, 19415]","['down', 'down', 'down', 'down', 'up', 'up']",,,static/json/pachinko_11.json,"['0_1', '1_2', '2_2', '3_3', '4_3', '5_3', '6_2']",2.0,"[30, 27, 0]",static/json/pseudo_rewards_34.json,,,"{'2': 7, '6': 30, '1': -21}","[1, -1, 9, -6, 2, 25]","[10876, 707, 4830, 98, 122, 136]",30.0,57.0,,405406,45.0,,10.0,graph,,A1DJNUJZN8FE7N,3VE8AYVF8MXJ9BD49SER53V50OMF8F,6
"[11043, 11699, 12258, 13009, 13887, 14446]","['down', 'up', 'up', 'down', 'down', 'down']",,,static/json/pachinko_36.json,"['0_0', '1_1', '2_0', '3_0', '4_0', '5_1', '6_1']",3.0,"[32, 0]",static/json/pseudo_rewards_110.json,,,"{'2': 12, '6': 27, '1': -11}","[-2, -5, 2, 16, 0, 16]","[11029, 129, 39, 209, 349, 31]",27.0,32.0,,422727,146.0,,11.0,graph,,A1DJNUJZN8FE7N,3VE8AYVF8MXJ9BD49SER53V50OMF8F,6
"[28011, 28659, 29215, 29816, 30499, 31061]","['up', 'up', 'up', 'up', 'down', 'down']",,,static/json/pachinko_1.json,"['0_3', '1_3', '2_2', '3_2', '4_1', '5_2', '6_2']",0.0,[],,,,"{'2': 10, '6': 24, '1': -12}","[4, -1, 4, -2, 9, 10]","[28010, 127, 35, 82, 165, 48]",24.0,0.0,,457823,7.0,,12.0,graph,,A1DJNUJZN8FE7N,3VE8AYVF8MXJ9BD49SER53V50OMF8F,6
"[4789, 5379, 11262, 11942, 12570, 13270]","['down', 'down', 'up', 'down', 'up', 'up']",,,static/json/pachinko_23.json,"['0_0', '1_1', '2_1', '3_1', '4_1', '5_1', '6_0']",2.0,"[40, 28, 0]",static/json/pseudo_rewards_70.json,,,"{'2': 25, '6': 36, '1': -9}","[-3, -1, 6, 6, 6, 22]","[4774, 71, 5342, 153, 94, 186]",36.0,68.0,,473874,93.0,,13.0,graph,,A1DJNUJZN8FE7N,3VE8AYVF8MXJ9BD49SER53V50OMF8F,6
