action_times,actions,button_pressed,correct,env,path,pr_freq,prs,pseudo_rewards,questions,responses,returns,rewards,rt,score,stars,stimulus,time_elapsed,trial,trial_id,trial_index,trial_type,view_history,worker_id,assignment_id,pid
,,,,,,,,,,,,,340714,,,,340730,,,,instructions,"[{""page_index"":0,""viewing_time"":99706},{""page_index"":1,""viewing_time"":203159},{""page_index"":2,""viewing_time"":29324},{""page_index"":3,""viewing_time"":5066},{""page_index"":4,""viewing_time"":3459}]",A12FCLCVIM2CL3,3IQ1VMJRYTKORPF634YDRYFPNERA9M,0
,,,,,,,,,,,,,12767,,,,381367,,,,instructions,"[{""page_index"":0,""viewing_time"":1931},{""page_index"":1,""viewing_time"":933},{""page_index"":2,""viewing_time"":1008},{""page_index"":3,""viewing_time"":1202},{""page_index"":2,""viewing_time"":5530},{""page_index"":3,""viewing_time"":960},{""page_index"":4,""viewing_time"":1202}]",A12FCLCVIM2CL3,3IQ1VMJRYTKORPF634YDRYFPNERA9M,0
,,,,,,,,,,,,,51761,,,,51772,,,,instructions,"[{""page_index"":0,""viewing_time"":11992},{""page_index"":1,""viewing_time"":4055},{""page_index"":2,""viewing_time"":16114},{""page_index"":3,""viewing_time"":18199},{""page_index"":4,""viewing_time"":1400}]",A12R2U6TBB3OOG,30LSNF239UVSXND5UJBBY9VUUFX2IZ,1
,,,,,,,,,,,,,293274,,,,293312,,,,instructions,"[{""page_index"":0,""viewing_time"":92992},{""page_index"":1,""viewing_time"":41063},{""page_index"":2,""viewing_time"":70761},{""page_index"":3,""viewing_time"":70495},{""page_index"":4,""viewing_time"":17960}]",A13XXMDHOULEZ7,38BQUHLA9W0S0DS12W70XF5ECTDOM7,2
,,,,,,,,,,,,,229589,,,,229610,,,,instructions,"[{""page_index"":0,""viewing_time"":148470},{""page_index"":1,""viewing_time"":13007},{""page_index"":2,""viewing_time"":24328},{""page_index"":3,""viewing_time"":39247},{""page_index"":4,""viewing_time"":4536}]",A16HSMUJ7C7QA7,3KJYX6QCM9BXPPVD0BGMCF754T9JVW,3
,,,,,,,,,,,,,944051,,,,944059,,,,instructions,"[{""page_index"":0,""viewing_time"":675207},{""page_index"":1,""viewing_time"":6469},{""page_index"":2,""viewing_time"":24849},{""page_index"":3,""viewing_time"":48314},{""page_index"":4,""viewing_time"":189212}]",A1A2X0T1XE8K89,3U5JL4WY5K9ZQWHNXJU0UYF726X4XX,4
,,,,,,,,,,,,,20699,,,,1130042,,,,instructions,"[{""page_index"":0,""viewing_time"":4284},{""page_index"":1,""viewing_time"":1493},{""page_index"":2,""viewing_time"":12942},{""page_index"":3,""viewing_time"":1018},{""page_index"":4,""viewing_time"":962}]",A1A2X0T1XE8K89,3U5JL4WY5K9ZQWHNXJU0UYF726X4XX,4
,,,,,,,,,,,,,8710,,,,1168453,,,,instructions,"[{""page_index"":0,""viewing_time"":2136},{""page_index"":1,""viewing_time"":1122},{""page_index"":2,""viewing_time"":3428},{""page_index"":3,""viewing_time"":1110},{""page_index"":4,""viewing_time"":914}]",A1A2X0T1XE8K89,3U5JL4WY5K9ZQWHNXJU0UYF726X4XX,4
,,,,,,,,,,,,,76242,,,,1249905,,,,instructions,"[{""page_index"":0,""viewing_time"":2758},{""page_index"":1,""viewing_time"":3576},{""page_index"":2,""viewing_time"":59094},{""page_index"":3,""viewing_time"":1528},{""page_index"":2,""viewing_time"":7474},{""page_index"":3,""viewing_time"":976},{""page_index"":4,""viewing_time"":836}]",A1A2X0T1XE8K89,3U5JL4WY5K9ZQWHNXJU0UYF726X4XX,4
,,,,,,,,,,,,,122598,,,,122614,,,,instructions,"[{""page_index"":0,""viewing_time"":18080},{""page_index"":1,""viewing_time"":20555},{""page_index"":2,""viewing_time"":30543},{""page_index"":3,""viewing_time"":48534},{""page_index"":4,""viewing_time"":4885}]",A1C0H8G0YI15MN,3NGI5ARFTT5DPOIDOA1H2NM1ONEP1H,5
,,,,,,,,,,,,,96643,,,,96668,,,,instructions,"[{""page_index"":0,""viewing_time"":25571},{""page_index"":1,""viewing_time"":10351},{""page_index"":2,""viewing_time"":23520},{""page_index"":3,""viewing_time"":30288},{""page_index"":4,""viewing_time"":6912}]",A1DJNUJZN8FE7N,3VE8AYVF8MXJ9BD49SER53V50OMF8F,6
,,,,,,,,,,,,,113492,,,,113515,,,,instructions,"[{""page_index"":0,""viewing_time"":22878},{""page_index"":1,""viewing_time"":15565},{""page_index"":2,""viewing_time"":54791},{""page_index"":3,""viewing_time"":6520},{""page_index"":2,""viewing_time"":2329},{""page_index"":3,""viewing_time"":8585},{""page_index"":4,""viewing_time"":2824}]",A1H72Y9Z5NJXDS,3K3R2QNK8B386YT499F4RZRJUGV9U7,7
,,,,,,,,,,,,,83065,,,,83079,,,,instructions,"[{""page_index"":0,""viewing_time"":9234},{""page_index"":1,""viewing_time"":32083},{""page_index"":2,""viewing_time"":26029},{""page_index"":3,""viewing_time"":13960},{""page_index"":4,""viewing_time"":1758}]",A1I9ZBV75AVWUS,3VHP9MDGRNKLLE3HQ4UW7PROQEICFR,8
,,,,,,,,,,,,,79920,,,,79938,,,,instructions,"[{""page_index"":0,""viewing_time"":23583},{""page_index"":1,""viewing_time"":15042},{""page_index"":2,""viewing_time"":28343},{""page_index"":3,""viewing_time"":8790},{""page_index"":4,""viewing_time"":4162}]",A1ME089VLGOBBI,3UWN2HHPUY5DGN5ULE39UZ4FE9JSN3,9
,,,,,,,,,,,,,92391,,,,92477,,,,instructions,"[{""page_index"":0,""viewing_time"":26034},{""page_index"":1,""viewing_time"":14097},{""page_index"":2,""viewing_time"":26630},{""page_index"":3,""viewing_time"":21217},{""page_index"":4,""viewing_time"":4411}]",A1MTRZDRKNB9GV,35GMH2SV3EHUOP0OLYJHK7053RMEO8,10
,,,,,,,,,,,,,58804,,,,187808,,,,instructions,"[{""page_index"":0,""viewing_time"":15692},{""page_index"":1,""viewing_time"":10942},{""page_index"":2,""viewing_time"":28245},{""page_index"":3,""viewing_time"":2299},{""page_index"":4,""viewing_time"":1623}]",A1MTRZDRKNB9GV,35GMH2SV3EHUOP0OLYJHK7053RMEO8,10
,,,,,,,,,,,,,7670,,,,213211,,,,instructions,"[{""page_index"":0,""viewing_time"":1286},{""page_index"":1,""viewing_time"":1146},{""page_index"":2,""viewing_time"":1304},{""page_index"":3,""viewing_time"":1410},{""page_index"":4,""viewing_time"":2521}]",A1MTRZDRKNB9GV,35GMH2SV3EHUOP0OLYJHK7053RMEO8,10
,,,,,,,,,,,,,7197,,,,228509,,,,instructions,"[{""page_index"":0,""viewing_time"":1405},{""page_index"":1,""viewing_time"":1103},{""page_index"":2,""viewing_time"":1473},{""page_index"":3,""viewing_time"":1984},{""page_index"":4,""viewing_time"":1230}]",A1MTRZDRKNB9GV,35GMH2SV3EHUOP0OLYJHK7053RMEO8,10
,,,,,,,,,,,,,114364,,,,114375,,,,instructions,"[{""page_index"":0,""viewing_time"":43333},{""page_index"":1,""viewing_time"":5356},{""page_index"":2,""viewing_time"":55281},{""page_index"":3,""viewing_time"":8599},{""page_index"":4,""viewing_time"":1795}]",A1N4AZ1QXPOPXH,3R5F3LQFV2KSZKRKHLXU5H1NRXVOZO,11
,,,,,,,,,,,,,49134,,,,49142,,,,instructions,"[{""page_index"":0,""viewing_time"":16078},{""page_index"":1,""viewing_time"":6174},{""page_index"":2,""viewing_time"":17176},{""page_index"":3,""viewing_time"":8144},{""page_index"":4,""viewing_time"":1562}]",A1NKBXOTZAI1YK,3VJ40NV2QINWD8ILBT8CJT06619OT8,12
,,,,,,,,,,,,,16559,,,,89245,,,,instructions,"[{""page_index"":0,""viewing_time"":1791},{""page_index"":1,""viewing_time"":3648},{""page_index"":2,""viewing_time"":9303},{""page_index"":3,""viewing_time"":1028},{""page_index"":4,""viewing_time"":788}]",A1NKBXOTZAI1YK,3VJ40NV2QINWD8ILBT8CJT06619OT8,12
,,,,,,,,,,,,,34353,,,,34365,,,,instructions,"[{""page_index"":0,""viewing_time"":7241},{""page_index"":1,""viewing_time"":6825},{""page_index"":2,""viewing_time"":7038},{""page_index"":3,""viewing_time"":3692},{""page_index"":4,""viewing_time"":2151},{""page_index"":3,""viewing_time"":5846},{""page_index"":4,""viewing_time"":1560}]",A1OQ3KL56KMQSU,3907X2AHF05KE9097E1V76W6GTSP2Y,13
,,,,,,,,,,,,,80317,,,,80337,,,,instructions,"[{""page_index"":0,""viewing_time"":10612},{""page_index"":1,""viewing_time"":8759},{""page_index"":2,""viewing_time"":43546},{""page_index"":3,""viewing_time"":13705},{""page_index"":4,""viewing_time"":3694}]",A1PTH9KTRO06EG,3TY7ZAOG5FKC780FFZS9S1HSPMRK0Z,14
,,,,,,,,,,,,,113151,,,,113159,,,,instructions,"[{""page_index"":0,""viewing_time"":13642},{""page_index"":1,""viewing_time"":12259},{""page_index"":2,""viewing_time"":61410},{""page_index"":3,""viewing_time"":20861},{""page_index"":4,""viewing_time"":4977}]",A1TL6GOSY0W1YC,39K0FND3AHF3Y9Y0SD2IWKL9NC9MA6,15
,,,,,,,,,,,,,24126,,,,165400,,,,instructions,"[{""page_index"":0,""viewing_time"":3261},{""page_index"":1,""viewing_time"":3047},{""page_index"":2,""viewing_time"":12370},{""page_index"":3,""viewing_time"":1120},{""page_index"":4,""viewing_time"":4328}]",A1TL6GOSY0W1YC,39K0FND3AHF3Y9Y0SD2IWKL9NC9MA6,15
,,,,,,,,,,,,,86539,,,,86548,,,,instructions,"[{""page_index"":0,""viewing_time"":15306},{""page_index"":1,""viewing_time"":9618},{""page_index"":2,""viewing_time"":41181},{""page_index"":3,""viewing_time"":16480},{""page_index"":4,""viewing_time"":3953}]",A1W2AXHN5R2J91,3GGAI1SQEVYRROVYCRY92FBXNGJMCZ,16
,,,,,,,,,,,,,56708,,,,56727,,,,instructions,"[{""page_index"":0,""viewing_time"":11241},{""page_index"":1,""viewing_time"":5948},{""page_index"":2,""viewing_time"":29469},{""page_index"":3,""viewing_time"":7535},{""page_index"":4,""viewing_time"":2514}]",A1X5IZPCRLL0Z7,30OG32W0SUBC640CKJJ45I00DHHENT,17
,,,,,,,,,,,,,148920,,,,148966,,,,instructions,"[{""page_index"":0,""viewing_time"":6256},{""page_index"":1,""viewing_time"":48171},{""page_index"":2,""viewing_time"":36796},{""page_index"":3,""viewing_time"":49935},{""page_index"":4,""viewing_time"":7760}]",A1ZRH6U4OYYM1S,3GGAI1SQEVYRROVYCRY92FBXNFUMC8,18
,,,,,,,,,,,,,45791,,,,45816,,,,instructions,"[{""page_index"":0,""viewing_time"":17096},{""page_index"":1,""viewing_time"":13341},{""page_index"":2,""viewing_time"":7127},{""page_index"":3,""viewing_time"":6492},{""page_index"":4,""viewing_time"":1733}]",A20HITED8LB7O5,3A4TN5196KI5ZAUNLUIWAA316TVHCU,19
,,,,,,,,,,,,,17890,,,,83267,,,,instructions,"[{""page_index"":0,""viewing_time"":1521},{""page_index"":1,""viewing_time"":1122},{""page_index"":2,""viewing_time"":12047},{""page_index"":3,""viewing_time"":1370},{""page_index"":4,""viewing_time"":1829}]",A20HITED8LB7O5,3A4TN5196KI5ZAUNLUIWAA316TVHCU,19
,,,,,,,,,,,,,62130,,,,62156,,,,instructions,"[{""page_index"":0,""viewing_time"":14874},{""page_index"":1,""viewing_time"":15322},{""page_index"":2,""viewing_time"":25875},{""page_index"":3,""viewing_time"":2558},{""page_index"":4,""viewing_time"":3500}]",A21FSF2MCK11IR,3TOK3KHVJTI9FALEYQ5BEX8OH4I7OF,20
,,,,,,,,,,,,,27215,,,,121583,,,,instructions,"[{""page_index"":0,""viewing_time"":4108},{""page_index"":1,""viewing_time"":1429},{""page_index"":2,""viewing_time"":18701},{""page_index"":3,""viewing_time"":1712},{""page_index"":4,""viewing_time"":1264}]",A21FSF2MCK11IR,3TOK3KHVJTI9FALEYQ5BEX8OH4I7OF,20
,,,,,,,,,,,,,78977,,,,79001,,,,instructions,"[{""page_index"":0,""viewing_time"":36699},{""page_index"":1,""viewing_time"":9530},{""page_index"":2,""viewing_time"":19745},{""page_index"":3,""viewing_time"":9497},{""page_index"":4,""viewing_time"":3504}]",A22051NK9RQ4FV,3YJ6NA41JBGKK5YHEZ7N6NINI4EJPF,21
,,,,,,,,,,,,,18322,,,,120093,,,,instructions,"[{""page_index"":0,""viewing_time"":2648},{""page_index"":1,""viewing_time"":2191},{""page_index"":2,""viewing_time"":8559},{""page_index"":3,""viewing_time"":1817},{""page_index"":4,""viewing_time"":3106}]",A22051NK9RQ4FV,3YJ6NA41JBGKK5YHEZ7N6NINI4EJPF,21
,,,,,,,,,,,,,195604,,,,195644,,,,instructions,"[{""page_index"":0,""viewing_time"":29074},{""page_index"":1,""viewing_time"":7853},{""page_index"":2,""viewing_time"":105777},{""page_index"":3,""viewing_time"":48192},{""page_index"":4,""viewing_time"":4707}]",A24APYGPICROST,32Z9ZLUT1LK68ZRQBZRN5AXIV83HOI,22
,,,,,,,,,,,,,144849,,,,363116,,,,instructions,"[{""page_index"":0,""viewing_time"":9340},{""page_index"":1,""viewing_time"":19352},{""page_index"":2,""viewing_time"":111266},{""page_index"":3,""viewing_time"":2537},{""page_index"":4,""viewing_time"":2351}]",A24APYGPICROST,32Z9ZLUT1LK68ZRQBZRN5AXIV83HOI,22
,,,,,,,,,,,,,68794,,,,68868,,,,instructions,"[{""page_index"":0,""viewing_time"":27314},{""page_index"":1,""viewing_time"":7169},{""page_index"":2,""viewing_time"":18916},{""page_index"":3,""viewing_time"":12902},{""page_index"":4,""viewing_time"":2491}]",A24DYXCGZQUZUQ,323Q6SJS8IGC2MEXCW8XIGO436NHF5,23
,,,,,,,,,,,,,79148,,,,79215,,,,instructions,"[{""page_index"":0,""viewing_time"":15939},{""page_index"":1,""viewing_time"":10722},{""page_index"":2,""viewing_time"":28636},{""page_index"":3,""viewing_time"":19900},{""page_index"":4,""viewing_time"":3949}]",A26RO8GGTQAXGG,3X73LLYYQ1EOQEREAKRAQLXD5YYHN3,24
,,,,,,,,,,,,,71276,,,,71284,,,,instructions,"[{""page_index"":0,""viewing_time"":26330},{""page_index"":1,""viewing_time"":5322},{""page_index"":2,""viewing_time"":17824},{""page_index"":3,""viewing_time"":19536},{""page_index"":4,""viewing_time"":2264}]",A26Y58YECZUZZG,3X65QVEQI0N7L6DDCFXU22W8NBTCLN,25
,,,,,,,,,,,,,13215,,,,99652,,,,instructions,"[{""page_index"":0,""viewing_time"":1490},{""page_index"":1,""viewing_time"":5327},{""page_index"":2,""viewing_time"":4435},{""page_index"":3,""viewing_time"":1009},{""page_index"":4,""viewing_time"":954}]",A26Y58YECZUZZG,3X65QVEQI0N7L6DDCFXU22W8NBTCLN,25
,,,,,,,,,,,,,63928,,,,63943,,,,instructions,"[{""page_index"":0,""viewing_time"":17370},{""page_index"":1,""viewing_time"":8007},{""page_index"":2,""viewing_time"":30092},{""page_index"":3,""viewing_time"":4718},{""page_index"":4,""viewing_time"":3740}]",A27BPRHBM28XZS,3PQMUDRV7R6W88R7JMW3LP2BJCNIIL,26
,,,,,,,,,,,,,109553,,,,109584,,,,instructions,"[{""page_index"":0,""viewing_time"":42866},{""page_index"":1,""viewing_time"":9415},{""page_index"":2,""viewing_time"":38999},{""page_index"":3,""viewing_time"":15926},{""page_index"":4,""viewing_time"":2344}]",A28ZPY6D5AS7GZ,3SNVL38CI4SW10VVRFLTN2JTYBOCKK,27
,,,,,,,,,,,,,12438,,,,145605,,,,instructions,"[{""page_index"":0,""viewing_time"":1938},{""page_index"":1,""viewing_time"":2020},{""page_index"":2,""viewing_time"":5584},{""page_index"":3,""viewing_time"":1592},{""page_index"":4,""viewing_time"":1303}]",A28ZPY6D5AS7GZ,3SNVL38CI4SW10VVRFLTN2JTYBOCKK,27
,,,,,,,,,,,,,89457,,,,89487,,,,instructions,"[{""page_index"":0,""viewing_time"":24391},{""page_index"":1,""viewing_time"":5072},{""page_index"":2,""viewing_time"":28955},{""page_index"":3,""viewing_time"":21507},{""page_index"":4,""viewing_time"":4032},{""page_index"":3,""viewing_time"":2652},{""page_index"":4,""viewing_time"":2846}]",A2AMQX0BQZXG9N,3LRLIPTPEQ988LYX71P2H7T5Y7EKAZ,28
,,,,,,,,,,,,,75393,,,,75408,,,,instructions,"[{""page_index"":0,""viewing_time"":11932},{""page_index"":1,""viewing_time"":8368},{""page_index"":2,""viewing_time"":20948},{""page_index"":3,""viewing_time"":30690},{""page_index"":4,""viewing_time"":3454}]",A2B6WQG0A9CKXQ,3X66WABAJWI3ME3T8VPDW7N6LHYG3R,29
,,,,,,,,,,,,,9698,,,,100494,,,,instructions,"[{""page_index"":0,""viewing_time"":1215},{""page_index"":1,""viewing_time"":1114},{""page_index"":2,""viewing_time"":4692},{""page_index"":3,""viewing_time"":1180},{""page_index"":4,""viewing_time"":1497}]",A2B6WQG0A9CKXQ,3X66WABAJWI3ME3T8VPDW7N6LHYG3R,29
,,,,,,,,,,,,,108379,,,,108446,,,,instructions,"[{""page_index"":0,""viewing_time"":38139},{""page_index"":1,""viewing_time"":10375},{""page_index"":2,""viewing_time"":34904},{""page_index"":3,""viewing_time"":22617},{""page_index"":4,""viewing_time"":2343}]",A2CF2BD4Q0ZDJN,3300DTYQT2HX91D40BBL9CV5IS4EQG,30
,,,,,,,,,,,,,310238,,,,310252,,,,instructions,"[{""page_index"":0,""viewing_time"":173840},{""page_index"":1,""viewing_time"":16542},{""page_index"":2,""viewing_time"":104340},{""page_index"":3,""viewing_time"":12806},{""page_index"":4,""viewing_time"":2710}]",A2EYPSP4BXAZZ2,32KTQ2V7RDFPTQOV07OI0PAPHURM9R,31
,,,,,,,,,,,,,209417,,,,209443,,,,instructions,"[{""page_index"":0,""viewing_time"":70339},{""page_index"":1,""viewing_time"":16370},{""page_index"":2,""viewing_time"":106105},{""page_index"":3,""viewing_time"":12746},{""page_index"":4,""viewing_time"":3856}]",A2KLJKDG90K1PP,3QUO65DNQUOBDLXABYYMOPM8PFGOUZ,32
,,,,,,,,,,,,,77254,,,,77277,,,,instructions,"[{""page_index"":0,""viewing_time"":31403},{""page_index"":1,""viewing_time"":14520},{""page_index"":2,""viewing_time"":14811},{""page_index"":3,""viewing_time"":13168},{""page_index"":4,""viewing_time"":3351}]",A2NAKIXS3DVGAA,3A4TN5196KI5ZAUNLUIWAA316TVCHP,33
,,,,,,,,,,,,,183516,,,,183534,,,,instructions,"[{""page_index"":0,""viewing_time"":148654},{""page_index"":1,""viewing_time"":10686},{""page_index"":2,""viewing_time"":18391},{""page_index"":3,""viewing_time"":2015},{""page_index"":4,""viewing_time"":3769}]",A2RXPK0UN2O745,37UQDCYH6XV45UUBZ2RP9P2WDXF7VH,34
,,,,,,,,,,,,,598651,,,,598660,,,,instructions,"[{""page_index"":0,""viewing_time"":14330},{""page_index"":1,""viewing_time"":562586},{""page_index"":2,""viewing_time"":15184},{""page_index"":3,""viewing_time"":4407},{""page_index"":4,""viewing_time"":2143}]",A2S4YDJ9UGAXFQ,3DL65MZB8DFTF03LVTAQP76OED3CE9,35
,,,,,,,,,,,,,104511,,,,104521,,,,instructions,"[{""page_index"":0,""viewing_time"":24951},{""page_index"":1,""viewing_time"":3367},{""page_index"":2,""viewing_time"":1991},{""page_index"":3,""viewing_time"":16670},{""page_index"":4,""viewing_time"":57532}]",A2TH9DIRISH8FE,3R9WASFE2ZGYT7ERIIE4INS9ZW4FZT,36
,,,,,,,,,,,,,22815,,,,144485,,,,instructions,"[{""page_index"":0,""viewing_time"":9067},{""page_index"":1,""viewing_time"":2161},{""page_index"":2,""viewing_time"":9362},{""page_index"":3,""viewing_time"":1269},{""page_index"":4,""viewing_time"":956}]",A2TH9DIRISH8FE,3R9WASFE2ZGYT7ERIIE4INS9ZW4FZT,36
,,,,,,,,,,,,,57463,,,,57476,,,,instructions,"[{""page_index"":0,""viewing_time"":10151},{""page_index"":1,""viewing_time"":7375},{""page_index"":2,""viewing_time"":31208},{""page_index"":3,""viewing_time"":6704},{""page_index"":4,""viewing_time"":2024}]",A2YCMT5BPA0AG9,3IX2EGZR7BJ5WIEWRRBCBII2JM2JR7,37
,,,,,,,,,,,,,242251,,,,242264,,,,instructions,"[{""page_index"":0,""viewing_time"":54247},{""page_index"":1,""viewing_time"":12846},{""page_index"":2,""viewing_time"":109842},{""page_index"":3,""viewing_time"":56029},{""page_index"":4,""viewing_time"":9287}]",A35QZFRG4FKK3Z,3SNVL38CI4SW10VVRFLTN2JTYAZCKT,38
,,,,,,,,,,,,,101102,,,,101143,,,,instructions,"[{""page_index"":0,""viewing_time"":31827},{""page_index"":1,""viewing_time"":16849},{""page_index"":2,""viewing_time"":33007},{""page_index"":3,""viewing_time"":16889},{""page_index"":4,""viewing_time"":2528}]",A37RHQPON2RJYL,36DSNE9QZ5Y2Z5MGZZU8HNDX8ZIJOY,39
,,,,,,,,,,,,,31109,,,,162008,,,,instructions,"[{""page_index"":0,""viewing_time"":2843},{""page_index"":1,""viewing_time"":6599},{""page_index"":2,""viewing_time"":18793},{""page_index"":3,""viewing_time"":1614},{""page_index"":4,""viewing_time"":1259}]",A37RHQPON2RJYL,36DSNE9QZ5Y2Z5MGZZU8HNDX8ZIJOY,39
,,,,,,,,,,,,,140881,,,,140894,,,,instructions,"[{""page_index"":0,""viewing_time"":26716},{""page_index"":1,""viewing_time"":23703},{""page_index"":2,""viewing_time"":54547},{""page_index"":3,""viewing_time"":28154},{""page_index"":4,""viewing_time"":7761}]",A38BRN5NMJRPK5,3EICBYG644W1QGPD9ULHMNJGJLZCJU,40
,,,,,,,,,,,,,72252,,,,72272,,,,instructions,"[{""page_index"":0,""viewing_time"":13861},{""page_index"":1,""viewing_time"":10814},{""page_index"":2,""viewing_time"":25507},{""page_index"":3,""viewing_time"":19559},{""page_index"":4,""viewing_time"":2509}]",A38DXFI1TZA295,3ZPBJO59KP1F4201LQD7UGLJRT7HDU,41
,,,,,,,,,,,,,14030,,,,108269,,,,instructions,"[{""page_index"":0,""viewing_time"":2871},{""page_index"":1,""viewing_time"":1436},{""page_index"":2,""viewing_time"":6072},{""page_index"":3,""viewing_time"":2206},{""page_index"":4,""viewing_time"":1444}]",A38DXFI1TZA295,3ZPBJO59KP1F4201LQD7UGLJRT7HDU,41
,,,,,,,,,,,,,69317,,,,69328,,,,instructions,"[{""page_index"":0,""viewing_time"":12653},{""page_index"":1,""viewing_time"":8777},{""page_index"":2,""viewing_time"":19243},{""page_index"":3,""viewing_time"":24926},{""page_index"":4,""viewing_time"":3717}]",A3ACUGH5N9VQO2,32KTQ2V7RDFPTQOV07OI0PAPHUR9ME,42
,,,,,,,,,,,,,59520,,,,59541,,,,instructions,"[{""page_index"":0,""viewing_time"":14592},{""page_index"":1,""viewing_time"":10162},{""page_index"":2,""viewing_time"":19798},{""page_index"":3,""viewing_time"":12640},{""page_index"":4,""viewing_time"":2327}]",A3AIX82WZQZB5A,3T111IHZ5EQGQ61N5FKZMO4ZNHQ9R2,43
,,,,,,,,,,,,,58491,,,,178996,,,,instructions,"[{""page_index"":0,""viewing_time"":33875},{""page_index"":1,""viewing_time"":5792},{""page_index"":2,""viewing_time"":16080},{""page_index"":3,""viewing_time"":1507},{""page_index"":4,""viewing_time"":1237}]",A3AIX82WZQZB5A,3T111IHZ5EQGQ61N5FKZMO4ZNHQ9R2,43
,,,,,,,,,,,,,37723,,,,37733,,,,instructions,"[{""page_index"":0,""viewing_time"":12955},{""page_index"":1,""viewing_time"":6071},{""page_index"":2,""viewing_time"":6600},{""page_index"":3,""viewing_time"":10200},{""page_index"":4,""viewing_time"":1896}]",A3EG4C9T4F5DUR,39N5ACM9HENVETL8SNGAHT4KMZ29PA,44
,,,,,,,,,,,,,26163,,,,78292,,,,instructions,"[{""page_index"":0,""viewing_time"":3996},{""page_index"":1,""viewing_time"":3679},{""page_index"":2,""viewing_time"":16032},{""page_index"":3,""viewing_time"":1304},{""page_index"":4,""viewing_time"":1152}]",A3EG4C9T4F5DUR,39N5ACM9HENVETL8SNGAHT4KMZ29PA,44
,,,,,,,,,,,,,53430,,,,53484,,,,instructions,"[{""page_index"":0,""viewing_time"":6874},{""page_index"":1,""viewing_time"":27208},{""page_index"":2,""viewing_time"":11167},{""page_index"":3,""viewing_time"":4689},{""page_index"":4,""viewing_time"":3490}]",A3F7FH2NDBBN1M,386CSBG1OZMTWMKPUTSNXO3S1V9Q62,45
,,,,,,,,,,,,,35856,,,,105846,,,,instructions,"[{""page_index"":0,""viewing_time"":2229},{""page_index"":1,""viewing_time"":2245},{""page_index"":2,""viewing_time"":27131},{""page_index"":3,""viewing_time"":1405},{""page_index"":4,""viewing_time"":2844}]",A3F7FH2NDBBN1M,386CSBG1OZMTWMKPUTSNXO3S1V9Q62,45
,,,,,,,,,,,,,2206,,,,121599,,,,instructions,"[{""page_index"":0,""viewing_time"":670},{""page_index"":1,""viewing_time"":890},{""page_index"":2,""viewing_time"":159},{""page_index"":3,""viewing_time"":154},{""page_index"":4,""viewing_time"":332}]",A3F7FH2NDBBN1M,386CSBG1OZMTWMKPUTSNXO3S1V9Q62,45
,,,,,,,,,,,,,59518,,,,59525,,,,instructions,"[{""page_index"":0,""viewing_time"":15523},{""page_index"":1,""viewing_time"":13675},{""page_index"":2,""viewing_time"":9461},{""page_index"":3,""viewing_time"":17442},{""page_index"":4,""viewing_time"":3417}]",A3FABY0Q6234WK,3EQHHY4HQSS60TQXMED6B4LQZDPG5H,46
,,,,,,,,,,,,,23279,,,,23293,,,,instructions,"[{""page_index"":0,""viewing_time"":3312},{""page_index"":1,""viewing_time"":4820},{""page_index"":2,""viewing_time"":3462},{""page_index"":3,""viewing_time"":10591},{""page_index"":4,""viewing_time"":1093}]",A3I1W58P6SIV26,3WQ3B2KGE8GBLUH355JG73HC7KV1B6,47
,,,,,,,,,,,,,4004,,,,106476,,,,instructions,"[{""page_index"":0,""viewing_time"":1082},{""page_index"":1,""viewing_time"":809},{""page_index"":2,""viewing_time"":656},{""page_index"":3,""viewing_time"":632},{""page_index"":4,""viewing_time"":824}]",A3I1W58P6SIV26,3WQ3B2KGE8GBLUH355JG73HC7KV1B6,47
,,,,,,,,,,,,,63828,,,,63846,,,,instructions,"[{""page_index"":0,""viewing_time"":23932},{""page_index"":1,""viewing_time"":8037},{""page_index"":2,""viewing_time"":24570},{""page_index"":3,""viewing_time"":5038},{""page_index"":4,""viewing_time"":2250}]",A3I3JQX0P2F0K3,37WLF8U1WPQ7LJMUHO8Q12RJ2PIK65,48
,,,,,,,,,,,,,20082,,,,105327,,,,instructions,"[{""page_index"":0,""viewing_time"":2425},{""page_index"":1,""viewing_time"":2422},{""page_index"":2,""viewing_time"":12125},{""page_index"":3,""viewing_time"":1883},{""page_index"":4,""viewing_time"":1226}]",A3I3JQX0P2F0K3,37WLF8U1WPQ7LJMUHO8Q12RJ2PIK65,48
,,,,,,,,,,,,,42289,,,,42306,,,,instructions,"[{""page_index"":0,""viewing_time"":10790},{""page_index"":1,""viewing_time"":7208},{""page_index"":2,""viewing_time"":19387},{""page_index"":3,""viewing_time"":3283},{""page_index"":4,""viewing_time"":1620}]",A3JI3B5GTVA95F,33FBRBDW6OZC6ZTUIQOQXXA23BY8C1,49
,,,,,,,,,,,,,79431,,,,79439,,,,instructions,"[{""page_index"":0,""viewing_time"":14431},{""page_index"":1,""viewing_time"":9727},{""page_index"":2,""viewing_time"":33506},{""page_index"":3,""viewing_time"":16647},{""page_index"":4,""viewing_time"":5119}]",A3MJ47AD05HGC,336YQZE83VE6S3MJXHB1O95NVY8M50,50
,,,,,,,,,,,,,93417,,,,93440,,,,instructions,"[{""page_index"":0,""viewing_time"":24788},{""page_index"":1,""viewing_time"":8171},{""page_index"":2,""viewing_time"":48845},{""page_index"":3,""viewing_time"":8487},{""page_index"":4,""viewing_time"":3124}]",A3N0QZ9ZKUCTCQ,3Q5C1WP23M19WE0U4VS34HHKXND51B,51
,,,,,,,,,,,,,10286,,,,126093,,,,instructions,"[{""page_index"":0,""viewing_time"":2013},{""page_index"":1,""viewing_time"":1775},{""page_index"":2,""viewing_time"":4151},{""page_index"":3,""viewing_time"":1043},{""page_index"":4,""viewing_time"":1304}]",A3N0QZ9ZKUCTCQ,3Q5C1WP23M19WE0U4VS34HHKXND51B,51
,,,,,,,,,,,,,9051,,,,141542,,,,instructions,"[{""page_index"":0,""viewing_time"":5128},{""page_index"":1,""viewing_time"":967},{""page_index"":2,""viewing_time"":1011},{""page_index"":3,""viewing_time"":974},{""page_index"":4,""viewing_time"":971}]",A3N0QZ9ZKUCTCQ,3Q5C1WP23M19WE0U4VS34HHKXND51B,51
,,,,,,,,,,,,,34014,,,,182219,,,,instructions,"[{""page_index"":0,""viewing_time"":24444},{""page_index"":1,""viewing_time"":3959},{""page_index"":2,""viewing_time"":3974},{""page_index"":3,""viewing_time"":867},{""page_index"":4,""viewing_time"":770}]",A3N0QZ9ZKUCTCQ,3Q5C1WP23M19WE0U4VS34HHKXND51B,51
,,,,,,,,,,,,,188812,,,,188836,,,,instructions,"[{""page_index"":0,""viewing_time"":28598},{""page_index"":1,""viewing_time"":12984},{""page_index"":2,""viewing_time"":36544},{""page_index"":3,""viewing_time"":105558},{""page_index"":4,""viewing_time"":5126}]",A3NS1DN6J7Z3EU,3BXQMRHWKZYNDICYYIJ9WLX3UF6MUN,52
,,,,,,,,,,,,,57765,,,,57783,,,,instructions,"[{""page_index"":0,""viewing_time"":17501},{""page_index"":1,""viewing_time"":10881},{""page_index"":2,""viewing_time"":22574},{""page_index"":3,""viewing_time"":4920},{""page_index"":4,""viewing_time"":1888}]",A3O850HH4TT4Y2,38YMOXR4MUZYGJGB62RTPDLEPWE6WA,53
,,,,,,,,,,,,,30676,,,,108197,,,,instructions,"[{""page_index"":0,""viewing_time"":6932},{""page_index"":1,""viewing_time"":9384},{""page_index"":2,""viewing_time"":11832},{""page_index"":3,""viewing_time"":1304},{""page_index"":4,""viewing_time"":1224}]",A3O850HH4TT4Y2,38YMOXR4MUZYGJGB62RTPDLEPWE6WA,53
,,,,,,,,,,,,,19760,,,,138220,,,,instructions,"[{""page_index"":0,""viewing_time"":4392},{""page_index"":1,""viewing_time"":1768},{""page_index"":2,""viewing_time"":10192},{""page_index"":3,""viewing_time"":1248},{""page_index"":4,""viewing_time"":2160}]",A3O850HH4TT4Y2,38YMOXR4MUZYGJGB62RTPDLEPWE6WA,53
,,,,,,,,,,,,,117833,,,,117841,,,,instructions,"[{""page_index"":0,""viewing_time"":18463},{""page_index"":1,""viewing_time"":21594},{""page_index"":2,""viewing_time"":45244},{""page_index"":3,""viewing_time"":27812},{""page_index"":4,""viewing_time"":4719}]",A3R6HC9OAF77Q2,3K772S5NP8BKW8E1HLOR0Y34R58HEN,54
,,,,,,,,,,,,,20985,,,,21003,,,,instructions,"[{""page_index"":0,""viewing_time"":2162},{""page_index"":1,""viewing_time"":6804},{""page_index"":2,""viewing_time"":2313},{""page_index"":3,""viewing_time"":8370},{""page_index"":4,""viewing_time"":1335}]",A3S1O6HWXTKOSM,3VHHR074H3H19PIHLYPJMG4UMZD7LY,55
,,,,,,,,,,,,,67669,,,,67681,,,,instructions,"[{""page_index"":0,""viewing_time"":13914},{""page_index"":1,""viewing_time"":3968},{""page_index"":2,""viewing_time"":20383},{""page_index"":1,""viewing_time"":3757},{""page_index"":2,""viewing_time"":1027},{""page_index"":3,""viewing_time"":20994},{""page_index"":4,""viewing_time"":3624}]",A3SOZYQZWJOOYS,3OVR4I9USPJFHZGBB5Z80QJE543Q4H,56
,,,,,,,,,,,,,10287,,,,98366,,,,instructions,"[{""page_index"":0,""viewing_time"":4952},{""page_index"":1,""viewing_time"":1352},{""page_index"":2,""viewing_time"":1695},{""page_index"":3,""viewing_time"":1142},{""page_index"":4,""viewing_time"":1144}]",A3SOZYQZWJOOYS,3OVR4I9USPJFHZGBB5Z80QJE543Q4H,56
,,,,,,,,,,,,,61125,,,,61137,,,,instructions,"[{""page_index"":0,""viewing_time"":14685},{""page_index"":1,""viewing_time"":8778},{""page_index"":2,""viewing_time"":14639},{""page_index"":3,""viewing_time"":20821},{""page_index"":4,""viewing_time"":2200}]",A3T9LVCYQIS4UT,3TAYZSBPLL8HR1G1ZV5P2B1H3EQ2SK,57
,,,,,,,,,,,,,57735,,,,57746,,,,instructions,"[{""page_index"":0,""viewing_time"":10703},{""page_index"":1,""viewing_time"":6040},{""page_index"":2,""viewing_time"":13096},{""page_index"":3,""viewing_time"":20824},{""page_index"":4,""viewing_time"":7072}]",A3TEMWUZGEVFYS,3H0W84IWBK2XL2S4DQ0LE25AEE6ERH,58
,,,,,,,,,,,,,12300,,,,12328,,,,instructions,"[{""page_index"":0,""viewing_time"":2208},{""page_index"":1,""viewing_time"":2747},{""page_index"":2,""viewing_time"":3289},{""page_index"":3,""viewing_time"":2343},{""page_index"":4,""viewing_time"":1713}]",A3U2UNSYDPS933,32M8BPYGATMICHLCTYW00DPV4ZVIGT,59
,,,,,,,,,,,,,157052,,,,157067,,,,instructions,"[{""page_index"":0,""viewing_time"":26908},{""page_index"":1,""viewing_time"":13664},{""page_index"":2,""viewing_time"":64028},{""page_index"":3,""viewing_time"":46695},{""page_index"":4,""viewing_time"":5757}]",A3U5CRG5S8I800,338JKRMM26ZH6VXP1GM54FDD6QAHAS,60
,,,,,,,,,,,,,96777,,,,96835,,,,instructions,"[{""page_index"":0,""viewing_time"":22142},{""page_index"":1,""viewing_time"":14073},{""page_index"":2,""viewing_time"":30568},{""page_index"":3,""viewing_time"":26000},{""page_index"":4,""viewing_time"":3991}]",A3UEJQ4EJB9DBD,3S3AMIZX3U5ONUPLZYZ6JPO3E12CDG,61
,,,,,,,,,,,,,97434,,,,97448,,,,instructions,"[{""page_index"":0,""viewing_time"":18114},{""page_index"":1,""viewing_time"":13624},{""page_index"":2,""viewing_time"":48031},{""page_index"":3,""viewing_time"":11704},{""page_index"":4,""viewing_time"":5960}]",A4R9YHKM1MZDO,34X6J5FLPTY5KHZWECMC6S8XN00JQ6,62
,,,,,,,,,,,,,142463,,,,142472,,,,instructions,"[{""page_index"":0,""viewing_time"":65014},{""page_index"":1,""viewing_time"":1233},{""page_index"":2,""viewing_time"":65649},{""page_index"":3,""viewing_time"":5070},{""page_index"":4,""viewing_time"":5497}]",A7O82NXM2PI12,3HHRAGRYX85DTT97DN3VSTZUCU69OT,63
,,,,,,,,,,,,,106478,,,,106556,,,,instructions,"[{""page_index"":0,""viewing_time"":79376},{""page_index"":1,""viewing_time"":2843},{""page_index"":2,""viewing_time"":12128},{""page_index"":3,""viewing_time"":10240},{""page_index"":4,""viewing_time"":1888}]",A8MTR8ZH4OBNP,3U8YCDAGXPGYIBYAS4C6ONT1OSO0QC,64
,,,,,,,,,,,,,10790,,,,138648,,,,instructions,"[{""page_index"":0,""viewing_time"":1506},{""page_index"":1,""viewing_time"":1510},{""page_index"":2,""viewing_time"":5307},{""page_index"":3,""viewing_time"":1585},{""page_index"":4,""viewing_time"":879}]",A8MTR8ZH4OBNP,3U8YCDAGXPGYIBYAS4C6ONT1OSO0QC,64
,,,,,,,,,,,,,123030,,,,123100,,,,instructions,"[{""page_index"":0,""viewing_time"":28043},{""page_index"":1,""viewing_time"":12657},{""page_index"":2,""viewing_time"":48251},{""page_index"":3,""viewing_time"":26246},{""page_index"":4,""viewing_time"":7829}]",A8SD5DJ3KBLLR,3ON104KXQKWK1WCXNEYESF10T4R4W4,65
,,,,,,,,,,,,,53325,,,,53385,,,,instructions,"[{""page_index"":0,""viewing_time"":16162},{""page_index"":1,""viewing_time"":12218},{""page_index"":2,""viewing_time"":10327},{""page_index"":3,""viewing_time"":10440},{""page_index"":4,""viewing_time"":4175}]",A8YTY0RDR6AYX,3VD82FOHKQOFRRGAP7DMUJ02IFCCOG,66
,,,,,,,,,,,,,18684,,,,91403,,,,instructions,"[{""page_index"":0,""viewing_time"":2858},{""page_index"":1,""viewing_time"":1629},{""page_index"":2,""viewing_time"":11161},{""page_index"":3,""viewing_time"":1279},{""page_index"":4,""viewing_time"":1755}]",A8YTY0RDR6AYX,3VD82FOHKQOFRRGAP7DMUJ02IFCCOG,66
,,,,,,,,,,,,,70420,,,,174768,,,,instructions,"[{""page_index"":0,""viewing_time"":3016},{""page_index"":1,""viewing_time"":7588},{""page_index"":2,""viewing_time"":57204},{""page_index"":3,""viewing_time"":1106},{""page_index"":4,""viewing_time"":1503}]",A8YTY0RDR6AYX,3VD82FOHKQOFRRGAP7DMUJ02IFCCOG,66
,,,,,,,,,,,,,6008,,,,190519,,,,instructions,"[{""page_index"":0,""viewing_time"":1192},{""page_index"":1,""viewing_time"":1277},{""page_index"":2,""viewing_time"":1144},{""page_index"":3,""viewing_time"":1232},{""page_index"":4,""viewing_time"":1161}]",A8YTY0RDR6AYX,3VD82FOHKQOFRRGAP7DMUJ02IFCCOG,66
,,,,,,,,,,,,,12129,,,,209354,,,,instructions,"[{""page_index"":0,""viewing_time"":1316},{""page_index"":1,""viewing_time"":866},{""page_index"":2,""viewing_time"":1165},{""page_index"":3,""viewing_time"":7840},{""page_index"":4,""viewing_time"":940}]",A8YTY0RDR6AYX,3VD82FOHKQOFRRGAP7DMUJ02IFCCOG,66
,,,,,,,,,,,,,5594,,,,221315,,,,instructions,"[{""page_index"":0,""viewing_time"":1412},{""page_index"":1,""viewing_time"":1071},{""page_index"":2,""viewing_time"":1263},{""page_index"":3,""viewing_time"":874},{""page_index"":4,""viewing_time"":971}]",A8YTY0RDR6AYX,3VD82FOHKQOFRRGAP7DMUJ02IFCCOG,66
,,,,,,,,,,,,,111698,,,,111707,,,,instructions,"[{""page_index"":0,""viewing_time"":16754},{""page_index"":1,""viewing_time"":15830},{""page_index"":2,""viewing_time"":44781},{""page_index"":3,""viewing_time"":28718},{""page_index"":4,""viewing_time"":5614}]",A9O273N0X06JS,3U84XHCDICDOVRH2Y1ILRJVIA6V4ZU,67
,,,,,,,,,,,,,76273,,,,76322,,,,instructions,"[{""page_index"":0,""viewing_time"":25647},{""page_index"":1,""viewing_time"":7322},{""page_index"":2,""viewing_time"":21280},{""page_index"":3,""viewing_time"":17753},{""page_index"":4,""viewing_time"":4271}]",AASW4EHSSOG40,3ERMJ6L4DYSLF702LAQYMTJJM437M0,68
,,,,,,,,,,,,,13592,,,,124207,,,,instructions,"[{""page_index"":0,""viewing_time"":1773},{""page_index"":1,""viewing_time"":1427},{""page_index"":2,""viewing_time"":7153},{""page_index"":3,""viewing_time"":2100},{""page_index"":4,""viewing_time"":1139}]",AASW4EHSSOG40,3ERMJ6L4DYSLF702LAQYMTJJM437M0,68
,,,,,,,,,,,,,410337,,,,410355,,,,instructions,"[{""page_index"":0,""viewing_time"":150317},{""page_index"":1,""viewing_time"":20924},{""page_index"":2,""viewing_time"":193697},{""page_index"":3,""viewing_time"":41877},{""page_index"":4,""viewing_time"":3521}]",AB66CTVQ90RCV,3D4CH1LGEATP1GS9P4QNNKQSL8F9G6,69
,,,,,,,,,,,,,29861,,,,458047,,,,instructions,"[{""page_index"":0,""viewing_time"":6745},{""page_index"":1,""viewing_time"":9275},{""page_index"":2,""viewing_time"":10522},{""page_index"":3,""viewing_time"":1810},{""page_index"":4,""viewing_time"":1508}]",AB66CTVQ90RCV,3D4CH1LGEATP1GS9P4QNNKQSL8F9G6,69
,,,,,,,,,,,,,64250,,,,64255,,,,instructions,"[{""page_index"":0,""viewing_time"":13360},{""page_index"":1,""viewing_time"":12537},{""page_index"":2,""viewing_time"":16191},{""page_index"":3,""viewing_time"":19311},{""page_index"":4,""viewing_time"":2851}]",ACN0C9HPYDTED,3W8CV64QJ2Z31CNK9A858K2T08S9H5,70
,,,,,,,,,,,,,85068,,,,85077,,,,instructions,"[{""page_index"":0,""viewing_time"":7386},{""page_index"":1,""viewing_time"":26184},{""page_index"":2,""viewing_time"":17088},{""page_index"":3,""viewing_time"":32953},{""page_index"":4,""viewing_time"":1456}]",ACNID00UIEL1T,3QY7M81QH7MQPJ0Z0YDI7GRFXZ87KV,71
,,,,,,,,,,,,,7848,,,,111308,,,,instructions,"[{""page_index"":0,""viewing_time"":1176},{""page_index"":1,""viewing_time"":1160},{""page_index"":2,""viewing_time"":3424},{""page_index"":3,""viewing_time"":1128},{""page_index"":4,""viewing_time"":960}]",ACNID00UIEL1T,3QY7M81QH7MQPJ0Z0YDI7GRFXZ87KV,71
,,,,,,,,,,,,,37232,,,,37267,,,,instructions,"[{""page_index"":0,""viewing_time"":9769},{""page_index"":1,""viewing_time"":7138},{""page_index"":2,""viewing_time"":13813},{""page_index"":3,""viewing_time"":4807},{""page_index"":4,""viewing_time"":1704}]",AEF74ZYJTTEIA,3X3OR7WPZZ0593N0V3HP0G0PXJLL81,72
,,,,,,,,,,,,,79561,,,,79597,,,,instructions,"[{""page_index"":0,""viewing_time"":22072},{""page_index"":1,""viewing_time"":10304},{""page_index"":2,""viewing_time"":27072},{""page_index"":3,""viewing_time"":15122},{""page_index"":4,""viewing_time"":4990}]",AEI5USUUPBU2G,3X73LLYYQ1EOQEREAKRAQLXD5YYHN3,73
,,,,,,,,,,,,,120108,,,,120121,,,,instructions,"[{""page_index"":0,""viewing_time"":71226},{""page_index"":1,""viewing_time"":8937},{""page_index"":2,""viewing_time"":29494},{""page_index"":3,""viewing_time"":5842},{""page_index"":4,""viewing_time"":4608}]",AEJMW2LLLCVFI,3ITXP059PWJHXXE96GBH1SNY5OLJSV,74
,,,,,,,,,,,,,187481,,,,187508,,,,instructions,"[{""page_index"":0,""viewing_time"":4850},{""page_index"":1,""viewing_time"":7872},{""page_index"":2,""viewing_time"":148552},{""page_index"":1,""viewing_time"":2688},{""page_index"":2,""viewing_time"":10014},{""page_index"":3,""viewing_time"":11607},{""page_index"":4,""viewing_time"":1896}]",AERKFVXFXBVIW,3F1567XTNW5GE5MNS0VZHYUURVO9Q1,75
,,,,,,,,,,,,,34023,,,,246219,,,,instructions,"[{""page_index"":0,""viewing_time"":10563},{""page_index"":1,""viewing_time"":8999},{""page_index"":2,""viewing_time"":11203},{""page_index"":3,""viewing_time"":1914},{""page_index"":4,""viewing_time"":1342}]",AERKFVXFXBVIW,3F1567XTNW5GE5MNS0VZHYUURVO9Q1,75
,,,,,,,,,,,,,178966,,,,179007,,,,instructions,"[{""page_index"":0,""viewing_time"":101583},{""page_index"":1,""viewing_time"":29126},{""page_index"":2,""viewing_time"":19045},{""page_index"":3,""viewing_time"":22491},{""page_index"":4,""viewing_time"":6720}]",AF1MN25P3XFLG,3TDXMTX3CBUGFOW6HLNEOMC6ALT6IG,76
,,,,,,,,,,,,,47078,,,,47088,,,,instructions,"[{""page_index"":0,""viewing_time"":9806},{""page_index"":1,""viewing_time"":5266},{""page_index"":2,""viewing_time"":15670},{""page_index"":3,""viewing_time"":13592},{""page_index"":4,""viewing_time"":2742}]",AIWEXPJAU66D9,3VP0C6EFSGW2B7MX20L6GFJNRTJM6G,77
,,,,,,,,,,,,,44095,,,,44119,,,,instructions,"[{""page_index"":0,""viewing_time"":14034},{""page_index"":1,""viewing_time"":5320},{""page_index"":2,""viewing_time"":11991},{""page_index"":3,""viewing_time"":7507},{""page_index"":4,""viewing_time"":5241}]",AJXWSGZL8G0FV,3R2UR8A0IAG3UPR5G3998WLCJXXOXR,78
,,,,,,,,,,,,,39929,,,,101472,,,,instructions,"[{""page_index"":0,""viewing_time"":3168},{""page_index"":1,""viewing_time"":6758},{""page_index"":2,""viewing_time"":26487},{""page_index"":3,""viewing_time"":2148},{""page_index"":4,""viewing_time"":1368}]",AJXWSGZL8G0FV,3R2UR8A0IAG3UPR5G3998WLCJXXOXR,78
,,,,,,,,,,,,,134356,,,,134381,,,,instructions,"[{""page_index"":0,""viewing_time"":55262},{""page_index"":1,""viewing_time"":14303},{""page_index"":2,""viewing_time"":39997},{""page_index"":3,""viewing_time"":19447},{""page_index"":4,""viewing_time"":5346}]",AK3H5QRAROFGP,3GGAI1SQEVYRROVYCRY92FBXNGJCMP,79
,,,,,,,,,,,,,89911,,,,89972,,,,instructions,"[{""page_index"":0,""viewing_time"":12762},{""page_index"":1,""viewing_time"":25412},{""page_index"":2,""viewing_time"":42951},{""page_index"":3,""viewing_time"":4840},{""page_index"":4,""viewing_time"":3944}]",AMG9Y1YLBTKIV,32VNZTT0A74FT0VBOKO85GTJ1PC4R1,80
,,,,,,,,,,,,,34317,,,,164489,,,,instructions,"[{""page_index"":0,""viewing_time"":4928},{""page_index"":1,""viewing_time"":2383},{""page_index"":2,""viewing_time"":24080},{""page_index"":3,""viewing_time"":1725},{""page_index"":4,""viewing_time"":1200}]",AMG9Y1YLBTKIV,32VNZTT0A74FT0VBOKO85GTJ1PC4R1,80
,,,,,,,,,,,,,57089,,,,57116,,,,instructions,"[{""page_index"":0,""viewing_time"":12251},{""page_index"":1,""viewing_time"":9538},{""page_index"":2,""viewing_time"":21637},{""page_index"":3,""viewing_time"":9854},{""page_index"":4,""viewing_time"":3807}]",AN098C29EGJ6,3ERMJ6L4DYSLF702LAQYMTJJM43M7F,81
,,,,,,,,,,,,,29593,,,,111794,,,,instructions,"[{""page_index"":0,""viewing_time"":7275},{""page_index"":1,""viewing_time"":5998},{""page_index"":2,""viewing_time"":12039},{""page_index"":3,""viewing_time"":2545},{""page_index"":4,""viewing_time"":1734}]",AN098C29EGJ6,3ERMJ6L4DYSLF702LAQYMTJJM43M7F,81
,,,,,,,,,,,,,70903,,,,70935,,,,instructions,"[{""page_index"":0,""viewing_time"":24692},{""page_index"":1,""viewing_time"":9710},{""page_index"":2,""viewing_time"":23052},{""page_index"":3,""viewing_time"":10426},{""page_index"":4,""viewing_time"":3023}]",ANJJYKB47APL5,3X73LLYYQ1EOQEREAKRAQLXD5Y2NHD,82
,,,,,,,,,,,,,41553,,,,139328,,,,instructions,"[{""page_index"":0,""viewing_time"":5414},{""page_index"":1,""viewing_time"":10599},{""page_index"":2,""viewing_time"":17190},{""page_index"":3,""viewing_time"":1594},{""page_index"":4,""viewing_time"":6755}]",ANJJYKB47APL5,3X73LLYYQ1EOQEREAKRAQLXD5Y2NHD,82
,,,,,,,,,,,,,148826,,,,148836,,,,instructions,"[{""page_index"":0,""viewing_time"":42658},{""page_index"":1,""viewing_time"":11110},{""page_index"":2,""viewing_time"":16192},{""page_index"":3,""viewing_time"":75993},{""page_index"":4,""viewing_time"":2872}]",APITQRRX2PADB,3E4GGUZ1T8RJ3I3TUMWNBPA7MJM2KA,83
,,,,,,,,,,,,,100751,,,,100770,,,,instructions,"[{""page_index"":0,""viewing_time"":17860},{""page_index"":1,""viewing_time"":26998},{""page_index"":2,""viewing_time"":19004},{""page_index"":3,""viewing_time"":32012},{""page_index"":4,""viewing_time"":4876}]",APR6H3HAOE9OU,3QJOXOW4XJR6OMFC8I44S3B08R7EMT,84
,,,,,,,,,,,,,71047,,,,71060,,,,instructions,"[{""page_index"":0,""viewing_time"":9360},{""page_index"":1,""viewing_time"":5783},{""page_index"":2,""viewing_time"":40824},{""page_index"":3,""viewing_time"":10768},{""page_index"":4,""viewing_time"":4312}]",AQHMXM5LLEP2N,3A7Y0R2P2OOPTE080QH4004QK3NJX3,85
,,,,,,,,,,,,,46739,,,,135858,,,,instructions,"[{""page_index"":0,""viewing_time"":7154},{""page_index"":1,""viewing_time"":2144},{""page_index"":2,""viewing_time"":34969},{""page_index"":3,""viewing_time"":1151},{""page_index"":4,""viewing_time"":1320}]",AQHMXM5LLEP2N,3A7Y0R2P2OOPTE080QH4004QK3NJX3,85
,,,,,,,,,,,,,52761,,,,52780,,,,instructions,"[{""page_index"":0,""viewing_time"":17391},{""page_index"":1,""viewing_time"":7338},{""page_index"":2,""viewing_time"":11938},{""page_index"":3,""viewing_time"":12558},{""page_index"":4,""viewing_time"":3534}]",ARM2CBQGJCQ5Z,3ZOTGHDK5IBVY856MT3M9O4K4JOSOI,86
,,,,,,,,,,,,,75550,,,,75571,,,,instructions,"[{""page_index"":0,""viewing_time"":28876},{""page_index"":1,""viewing_time"":9203},{""page_index"":2,""viewing_time"":33842},{""page_index"":3,""viewing_time"":2106},{""page_index"":4,""viewing_time"":1522}]",AX9YM2QJIGYE,3PB5A5BD0V6LNX4GA7S39OZMQJL7GO,87
,,,,,,,,,,,,,160954,,,,160969,,,,instructions,"[{""page_index"":0,""viewing_time"":18860},{""page_index"":1,""viewing_time"":6765},{""page_index"":2,""viewing_time"":29913},{""page_index"":3,""viewing_time"":101665},{""page_index"":4,""viewing_time"":3750}]",AXLMOFXKXSU0B,358UUM7WRZ3CCNDUQIMF8SDTSR27RO,88
,,,,,,,,,,,,,51191,,,,51219,,,,instructions,"[{""page_index"":0,""viewing_time"":16367},{""page_index"":1,""viewing_time"":11897},{""page_index"":2,""viewing_time"":13575},{""page_index"":3,""viewing_time"":6143},{""page_index"":4,""viewing_time"":3208}]",AYYBMS4XQJ9AP,3YMU66OBIN8IGMASNGEF01OG4LNHG4,89
